no,control,trials,stimulus,position,ui,response,rt,SR
8,I,1,M,top,button,down,3121,1
8,I,2,P,bottom,slider,top,1865,1
8,I,3,P,bottom,button,top,2279,1
8,I,4,M,bottom,slider,top,1199,1
8,I,5,G,top,button,down,1215,1
8,I,6,M,top,slider,down,1240,1
8,I,7,G,bottom,button,top,1007,1
8,I,8,N,bottom,slider,top,1097,1
8,I,9,G,bottom,button,top,1159,1
8,I,10,N,bottom,slider,top,1032,1
8,I,11,G,bottom,button,top,937,1
8,I,12,G,top,slider,down,1055,1
8,I,13,G,top,button,down,1040,1
8,I,14,M,bottom,slider,top,919,1
8,I,15,M,top,button,down,895,1
8,I,16,G,bottom,slider,top,719,1
8,I,17,N,bottom,button,top,857,1
8,I,18,N,bottom,slider,top,960,1
8,I,19,G,bottom,button,top,1239,1
8,I,20,P,bottom,slider,top,1063,1
8,I,21,G,bottom,button,top,775,1
8,I,22,M,top,slider,down,927,1
8,I,23,P,bottom,button,top,903,1
8,I,24,N,top,slider,down,1032,1
8,I,25,G,bottom,button,top,808,1
8,I,26,P,top,slider,down,1048,1
8,I,27,P,top,button,down,855,1
8,I,28,G,bottom,slider,top,784,1
8,I,29,N,top,button,down,1015,1
8,I,30,G,top,slider,down,753,1
8,I,31,P,top,button,down,800,1
8,I,32,N,bottom,slider,top,842,1
8,I,33,N,bottom,button,top,920,1
8,I,34,G,top,slider,down,959,1
8,I,35,P,top,button,down,800,1
8,I,36,G,top,slider,down,686,1
8,I,37,N,bottom,button,top,751,1
8,I,38,N,bottom,slider,top,673,1
8,I,39,M,bottom,button,top,816,1
8,I,40,G,bottom,slider,top,959,1
8,I,41,P,top,button,down,951,1
8,I,42,P,top,slider,down,738,1
8,I,43,M,top,button,down,1073,1
8,I,44,M,bottom,slider,top,871,1
8,I,45,P,bottom,button,top,911,1
8,I,46,M,bottom,slider,top,704,1
8,I,47,N,top,button,down,824,1
8,I,48,P,top,slider,down,815,1
8,I,49,M,bottom,button,top,830,1
8,I,50,P,top,slider,down,871,1
8,I,51,M,bottom,button,top,1008,1
8,I,52,M,bottom,slider,top,843,1
8,I,53,P,bottom,button,top,800,1
8,I,54,M,top,slider,down,938,1
8,I,55,M,bottom,button,top,1063,1
8,I,56,P,top,slider,down,969,1
8,I,57,N,top,button,down,872,1
8,I,58,P,top,slider,down,920,1
8,I,59,N,top,button,down,840,1
8,I,60,N,bottom,slider,top,601,1
8,I,61,M,bottom,button,top,809,1
8,I,62,M,bottom,slider,top,791,1
8,I,63,P,bottom,button,top,913,1
8,I,64,N,bottom,slider,top,1065,1
8,I,65,M,top,button,down,864,1
8,I,66,N,top,slider,down,2026,1
8,I,67,P,top,button,down,1040,1
8,I,68,N,top,slider,down,1863,1
8,I,69,P,top,button,down,966,1
8,I,70,G,top,slider,down,766,1
8,I,71,M,bottom,button,top,887,1
8,I,72,N,bottom,slider,top,690,1
8,I,73,N,bottom,button,top,823,1
8,I,74,G,bottom,slider,top,664,1
8,I,75,N,bottom,button,top,672,1
8,I,76,M,bottom,slider,top,783,1
8,I,77,G,bottom,button,top,776,1
8,I,78,P,top,slider,down,711,1
8,I,79,G,bottom,button,top,575,1
8,I,80,G,top,slider,down,785,1
8,D,1,M,bottom,button,top,883,1
8,D,2,P,top,slider,down,653,1
8,D,3,P,top,button,down,631,1
8,D,4,M,bottom,slider,top,716,1
8,D,5,G,top,button,down,908,1
8,D,6,M,top,slider,down,838,1
8,D,7,G,bottom,button,top,747,1
8,D,8,N,bottom,slider,top,854,1
8,D,9,G,bottom,button,top,701,1
8,D,10,N,top,slider,down,2514,1
8,D,11,G,top,button,down,651,1
8,D,12,G,top,slider,down,719,1
8,D,13,G,top,button,down,659,1
8,D,14,M,bottom,slider,top,770,1
8,D,15,M,bottom,button,top,701,1
8,D,16,G,top,slider,down,2762,1
8,D,17,N,bottom,button,top,658,1
8,D,18,N,bottom,slider,top,803,1
8,D,19,G,top,button,down,579,1
8,D,20,P,bottom,slider,top,3903,1
8,D,21,G,bottom,button,top,782,1
8,D,22,M,top,slider,down,878,1
8,D,23,P,bottom,button,top,735,1
8,D,24,N,top,slider,down,921,1
8,D,25,G,top,button,down,659,1
8,D,26,P,bottom,slider,top,696,1
8,D,27,P,top,button,down,628,1
8,D,28,G,bottom,slider,top,804,1
8,D,29,N,bottom,button,top,731,1
8,D,30,G,top,slider,down,769,1
8,D,31,P,bottom,button,top,767,1
8,D,32,N,bottom,slider,top,826,1
8,D,33,N,top,button,down,599,1
8,D,34,G,bottom,slider,top,849,1
8,D,35,P,bottom,button,top,763,1
8,D,36,G,bottom,slider,top,820,1
8,D,37,N,top,button,down,672,1
8,D,38,N,bottom,slider,top,633,1
8,D,39,M,bottom,button,top,614,1
8,D,40,G,top,slider,down,623,1
8,D,41,P,bottom,button,top,591,1
8,D,42,P,top,slider,down,1914,1
8,D,43,M,top,button,down,802,1
8,D,44,M,top,slider,down,643,1
8,D,45,P,top,button,down,657,1
8,D,46,M,top,slider,down,635,1
8,D,47,N,bottom,button,top,585,1
8,D,48,P,top,slider,down,557,1
8,D,49,M,top,button,down,678,1
8,D,50,P,top,slider,down,614,1
8,D,51,M,top,button,down,538,1
8,D,52,M,bottom,slider,top,545,1
8,D,53,P,top,button,down,577,1
8,D,54,M,top,slider,down,776,1
8,D,55,M,top,button,down,599,1
8,D,56,P,top,slider,down,718,1
8,D,57,N,bottom,button,top,727,1
8,D,58,P,bottom,slider,top,776,1
8,D,59,N,top,button,down,872,1
8,D,60,N,bottom,slider,top,1684,1
8,D,61,M,bottom,button,top,941,1
8,D,62,M,bottom,slider,top,612,1
8,D,63,P,top,button,down,723,1
8,D,64,N,bottom,slider,top,615,1
8,D,65,M,top,button,down,711,1
8,D,66,N,top,slider,down,1837,1
8,D,67,P,top,button,down,870,1
8,D,68,N,bottom,slider,top,768,1
8,D,69,P,top,button,down,865,1
8,D,70,G,top,slider,down,2071,1
8,D,71,M,bottom,button,top,656,1
8,D,72,N,top,slider,down,657,1
8,D,73,N,bottom,button,top,742,1
8,D,74,G,bottom,slider,top,646,1
8,D,75,N,bottom,button,top,729,1
8,D,76,M,top,slider,down,886,1
8,D,77,G,top,button,down,698,1
8,D,78,P,bottom,slider,top,728,1
8,D,79,G,top,button,down,744,1
8,D,80,G,top,slider,down,699,1
9,I,1,P,bottom,button,未互動,null,null
9,I,2,P,top,slider,down,1743,1
9,I,3,M,top,button,down,1672,1
9,I,4,M,bottom,slider,top,975,1
9,I,5,M,bottom,button,top,1286,1
9,I,6,G,top,slider,down,960,1
9,I,7,M,top,button,down,896,1
9,I,8,N,top,slider,down,1027,1
9,I,9,G,bottom,button,top,1157,1
9,I,10,G,top,slider,down,752,1
9,I,11,M,top,button,down,944,1
9,I,12,M,bottom,slider,top,933,1
9,I,13,P,bottom,button,top,1455,1
9,I,14,M,bottom,slider,top,1000,1
9,I,15,M,top,button,down,1014,1
9,I,16,G,top,slider,down,911,1
9,I,17,P,top,button,down,964,1
9,I,18,M,top,slider,down,1080,1
9,I,19,N,top,button,down,799,1
9,I,20,P,bottom,slider,top,942,1
9,I,21,M,bottom,button,top,927,1
9,I,22,N,bottom,slider,top,982,1
9,I,23,G,top,button,down,895,1
9,I,24,M,top,slider,down,817,1
9,I,25,N,bottom,button,top,936,1
9,I,26,N,top,slider,down,680,1
9,I,27,G,top,button,down,759,1
9,I,28,P,bottom,slider,top,934,1
9,I,29,G,top,button,down,935,1
9,I,30,N,top,slider,down,769,1
9,I,31,G,bottom,button,top,873,1
9,I,32,P,bottom,slider,top,949,1
9,I,33,N,bottom,button,top,863,1
9,I,34,G,top,slider,down,785,1
9,I,35,P,bottom,button,top,785,1
9,I,36,N,top,slider,down,615,1
9,I,37,G,top,button,down,751,1
9,I,38,G,top,slider,down,640,1
9,I,39,G,top,button,down,798,1
9,I,40,M,bottom,slider,top,1064,1
9,I,41,G,bottom,button,top,1174,1
9,I,42,M,bottom,slider,top,838,1
9,I,43,G,top,button,down,1039,1
9,I,44,M,bottom,slider,top,687,1
9,I,45,P,top,button,down,934,1
9,I,46,P,top,slider,down,1084,1
9,I,47,N,bottom,button,top,727,1
9,I,48,G,top,slider,down,759,1
9,I,49,G,bottom,button,top,828,1
9,I,50,M,top,slider,down,802,1
9,I,51,P,top,button,down,887,1
9,I,52,N,bottom,slider,top,700,1
9,I,53,P,bottom,button,top,1375,1
9,I,54,P,bottom,slider,top,743,1
9,I,55,N,top,button,down,1062,1
9,I,56,M,top,slider,down,902,1
9,I,57,M,bottom,button,top,838,1
9,I,58,N,bottom,slider,top,714,1
9,I,59,P,bottom,button,top,911,1
9,I,60,M,bottom,slider,top,688,1
9,I,61,N,top,button,down,1166,1
9,I,62,N,bottom,slider,top,847,1
9,I,63,N,top,button,down,974,1
9,I,64,N,bottom,slider,top,847,1
9,I,65,M,top,button,down,711,1
9,I,66,P,bottom,slider,top,837,1
9,I,67,M,bottom,button,top,957,1
9,I,68,P,bottom,slider,top,866,1
9,I,69,N,top,button,down,791,1
9,I,70,P,top,slider,down,1023,1
9,I,71,G,top,button,down,742,1
9,I,72,N,bottom,slider,top,670,1
9,I,73,G,top,button,down,646,1
9,I,74,P,top,slider,down,849,1
9,I,75,N,top,button,down,841,1
9,I,76,N,bottom,slider,top,672,1
9,I,77,G,top,button,down,698,1
9,I,78,P,bottom,slider,top,841,1
9,I,79,P,bottom,button,top,1169,1
9,I,80,G,top,slider,down,952,1
9,D,1,P,top,button,down,743,1
9,D,2,P,top,slider,down,768,1
9,D,3,M,top,button,down,1750,1
9,D,4,M,top,slider,down,870,1
9,D,5,M,bottom,button,top,684,1
9,D,6,G,top,slider,down,856,1
9,D,7,M,bottom,button,top,768,1
9,D,8,N,top,slider,down,747,1
9,D,9,G,bottom,button,top,752,1
9,D,10,G,top,slider,down,786,1
9,D,11,M,top,button,down,1412,1
9,D,12,M,top,slider,down,869,1
9,D,13,P,bottom,button,top,1387,1
9,D,14,M,bottom,slider,top,974,1
9,D,15,M,bottom,button,top,1406,1
9,D,16,G,bottom,slider,top,916,1
9,D,17,P,bottom,button,top,745,1
9,D,18,M,top,slider,down,887,1
9,D,19,N,bottom,button,top,733,1
9,D,20,P,bottom,slider,top,811,1
9,D,21,M,top,button,down,895,1
9,D,22,N,top,slider,down,686,1
9,D,23,G,top,button,down,725,1
9,D,24,M,bottom,slider,top,742,1
9,D,25,N,top,button,down,653,1
9,D,26,N,bottom,slider,top,718,1
9,D,27,G,top,button,down,678,1
9,D,28,P,bottom,slider,top,672,1
9,D,29,G,bottom,button,top,702,1
9,D,30,N,top,slider,down,688,1
9,D,31,G,bottom,button,top,712,1
9,D,32,P,top,slider,down,753,1
9,D,33,N,top,button,down,666,1
9,D,34,G,top,slider,down,750,1
9,D,35,P,top,button,down,1170,1
9,D,36,N,top,slider,down,768,1
9,D,37,G,top,button,down,655,1
9,D,38,G,bottom,slider,top,763,1
9,D,39,G,top,button,down,727,1
9,D,40,M,top,slider,down,636,1
9,D,41,G,top,button,down,641,1
9,D,42,M,bottom,slider,top,792,1
9,D,43,G,bottom,button,top,712,1
9,D,44,M,top,slider,down,1778,1
9,D,45,P,bottom,button,top,833,1
9,D,46,P,top,slider,down,759,1
9,D,47,N,top,button,down,1170,1
9,D,48,G,top,slider,down,745,1
9,D,49,G,top,button,down,1100,1
9,D,50,M,top,slider,down,2007,1
9,D,51,P,top,button,down,664,1
9,D,52,N,top,slider,down,1812,1
9,D,53,P,bottom,button,top,826,1
9,D,54,P,bottom,slider,top,799,1
9,D,55,N,bottom,button,top,762,1
9,D,56,M,top,slider,down,1778,1
9,D,57,M,top,button,down,758,1
9,D,58,N,bottom,slider,top,633,1
9,D,59,P,top,button,down,690,1
9,D,60,M,top,slider,down,1225,1
9,D,61,N,bottom,button,top,844,1
9,D,62,N,top,slider,down,1773,1
9,D,63,N,bottom,button,top,903,1
9,D,64,N,top,slider,down,774,1
9,D,65,M,top,button,down,802,1
9,D,66,P,bottom,slider,top,785,1
9,D,67,M,top,button,down,759,1
9,D,68,P,bottom,slider,top,770,1
9,D,69,N,top,button,down,1254,1
9,D,70,P,top,slider,down,1417,1
9,D,71,G,top,button,down,789,1
9,D,72,N,top,slider,down,1762,1
9,D,73,G,bottom,button,top,749,1
9,D,74,P,bottom,slider,top,755,1
9,D,75,N,top,button,down,764,1
9,D,76,N,bottom,slider,top,734,1
9,D,77,G,bottom,button,top,759,1
9,D,78,P,top,slider,down,1893,1
9,D,79,P,bottom,button,top,785,1
9,D,80,G,top,slider,down,741,1
1,D,1,G,bottom,button,top,1219,1
1,D,2,P,top,slider,down,1857,1
1,D,3,M,top,button,down,1382,1
1,D,4,G,bottom,slider,top,1130,1
1,D,5,N,top,button,down,977,1
1,D,6,N,bottom,slider,top,1114,1
1,D,7,G,top,button,down,1063,1
1,D,8,P,top,slider,down,1281,1
1,D,9,G,bottom,button,top,909,1
1,D,10,M,top,slider,down,916,1
1,D,11,N,top,button,down,860,1
1,D,12,G,top,slider,down,919,1
1,D,13,M,top,button,down,934,1
1,D,14,P,bottom,slider,top,895,1
1,D,15,M,top,button,down,772,1
1,D,16,P,bottom,slider,top,881,1
1,D,17,G,bottom,button,top,796,1
1,D,18,G,top,slider,down,852,1
1,D,19,N,bottom,button,top,916,1
1,D,20,G,top,slider,down,970,1
1,D,21,N,bottom,button,top,852,1
1,D,22,G,bottom,slider,top,847,1
1,D,23,M,top,button,down,1176,1
1,D,24,M,bottom,slider,top,793,1
1,D,25,N,top,button,down,1081,1
1,D,26,N,top,slider,down,864,1
1,D,27,N,top,button,down,851,1
1,D,28,P,bottom,slider,top,900,1
1,D,29,N,bottom,button,top,763,1
1,D,30,M,bottom,slider,top,834,1
1,D,31,P,top,button,down,854,1
1,D,32,N,top,slider,down,905,1
1,D,33,G,top,button,down,879,1
1,D,34,G,bottom,slider,top,783,1
1,D,35,M,top,button,down,836,1
1,D,36,G,top,slider,down,893,1
1,D,37,P,bottom,button,top,745,1
1,D,38,P,bottom,slider,top,871,1
1,D,39,G,top,button,down,1118,1
1,D,40,M,top,slider,down,796,1
1,D,41,P,top,button,down,756,1
1,D,42,P,bottom,slider,top,779,1
1,D,43,N,bottom,button,top,603,1
1,D,44,G,top,slider,down,845,1
1,D,45,P,bottom,button,top,728,1
1,D,46,N,top,slider,down,887,1
1,D,47,G,bottom,button,top,785,1
1,D,48,G,top,slider,down,867,1
1,D,49,G,bottom,button,top,581,1
1,D,50,M,bottom,slider,top,725,1
1,D,51,M,top,button,down,829,1
1,D,52,M,bottom,slider,top,727,1
1,D,53,G,top,button,down,731,1
1,D,54,N,top,slider,down,708,1
1,D,55,M,bottom,button,top,722,1
1,D,56,M,top,slider,down,709,1
1,D,57,M,top,button,down,759,1
1,D,58,N,top,slider,down,847,1
1,D,59,N,top,button,down,697,1
1,D,60,N,top,slider,down,1916,1
1,D,61,N,bottom,button,top,713,1
1,D,62,M,bottom,slider,top,639,1
1,D,63,P,bottom,button,top,684,1
1,D,64,M,bottom,slider,top,864,1
1,D,65,P,bottom,button,top,773,1
1,D,66,P,top,slider,down,725,1
1,D,67,M,top,button,down,710,1
1,D,68,P,bottom,slider,top,669,1
1,D,69,P,bottom,button,top,711,1
1,D,70,G,top,slider,down,761,1
1,D,71,P,bottom,button,top,620,1
1,D,72,N,top,slider,down,673,1
1,D,73,P,top,button,down,719,1
1,D,74,N,bottom,slider,top,716,1
1,D,75,P,top,button,down,669,1
1,D,76,M,bottom,slider,top,1813,1
1,D,77,G,bottom,button,top,618,1
1,D,78,M,bottom,slider,top,757,1
1,D,79,N,top,button,down,805,1
1,D,80,P,bottom,slider,top,711,1
1,I,1,G,top,button,down,784,1
1,I,2,P,top,slider,down,831,1
1,I,3,M,bottom,button,top,855,1
1,I,4,G,top,slider,down,760,1
1,I,5,N,bottom,button,top,895,1
1,I,6,N,top,slider,down,818,1
1,I,7,G,bottom,button,top,607,1
1,I,8,P,bottom,slider,top,624,1
1,I,9,G,top,button,down,767,1
1,I,10,M,top,slider,down,759,1
1,I,11,N,top,button,down,839,1
1,I,12,G,top,slider,down,704,1
1,I,13,M,top,button,down,879,1
1,I,14,P,bottom,slider,top,632,1
1,I,15,M,top,button,down,639,1
1,I,16,P,bottom,slider,top,657,1
1,I,17,G,bottom,button,top,935,1
1,I,18,G,top,slider,down,840,1
1,I,19,N,bottom,button,top,664,1
1,I,20,G,bottom,slider,top,617,1
1,I,21,N,bottom,button,top,752,1
1,I,22,G,bottom,slider,top,991,1
1,I,23,M,top,button,down,792,1
1,I,24,M,bottom,slider,top,759,1
1,I,25,N,top,button,down,759,1
1,I,26,N,top,slider,down,881,1
1,I,27,N,top,button,down,823,1
1,I,28,P,bottom,slider,top,687,1
1,I,29,N,top,button,down,951,1
1,I,30,M,top,slider,down,633,1
1,I,31,P,top,button,down,687,1
1,I,32,N,top,slider,down,808,1
1,I,33,G,top,button,down,744,1
1,I,34,G,bottom,slider,top,866,1
1,I,35,M,top,button,down,753,1
1,I,36,G,top,slider,down,783,1
1,I,37,P,top,button,down,688,1
1,I,38,P,bottom,slider,top,783,1
1,I,39,G,bottom,button,top,768,1
1,I,40,M,bottom,slider,top,846,1
1,I,41,P,top,button,down,751,1
1,I,42,P,bottom,slider,top,599,1
1,I,43,N,bottom,button,top,743,1
1,I,44,G,bottom,slider,top,600,1
1,I,45,P,top,button,down,816,1
1,I,46,N,bottom,slider,top,790,1
1,I,47,G,top,button,down,814,1
1,I,48,G,bottom,slider,top,774,1
1,I,49,G,top,button,down,1024,1
1,I,50,M,bottom,slider,top,687,1
1,I,51,M,bottom,button,top,790,1
1,I,52,M,bottom,slider,top,896,1
1,I,53,G,bottom,button,top,792,1
1,I,54,N,bottom,slider,top,720,1
1,I,55,M,top,button,down,792,1
1,I,56,M,bottom,slider,top,711,1
1,I,57,M,bottom,button,top,798,1
1,I,58,N,bottom,slider,top,953,1
1,I,59,N,bottom,button,top,920,1
1,I,60,N,top,slider,down,1415,1
1,I,61,N,bottom,button,top,735,1
1,I,62,M,bottom,slider,top,746,1
1,I,63,P,bottom,button,top,743,1
1,I,64,M,top,slider,down,823,1
1,I,65,P,top,button,down,784,1
1,I,66,P,top,slider,down,617,1
1,I,67,M,top,button,down,743,1
1,I,68,P,bottom,slider,top,631,1
1,I,69,P,top,button,down,630,1
1,I,70,G,top,slider,down,624,1
1,I,71,P,bottom,button,top,745,1
1,I,72,N,top,slider,down,743,1
1,I,73,P,top,button,down,815,1
1,I,74,N,bottom,slider,top,609,1
1,I,75,P,bottom,button,top,688,1
1,I,76,M,top,slider,down,672,1
1,I,77,G,bottom,button,top,615,1
1,I,78,M,bottom,slider,top,743,1
1,I,79,N,top,button,down,784,1
1,I,80,P,bottom,slider,top,821,1
10,I,1,G,bottom,button,top,1591,1
10,I,2,M,bottom,slider,top,1200,1
10,I,3,P,top,button,down,1590,1
10,I,4,G,top,slider,down,1247,1
10,I,5,G,bottom,button,top,1184,1
10,I,6,G,top,slider,down,938,1
10,I,7,G,bottom,button,top,1184,1
10,I,8,P,bottom,slider,top,1362,1
10,I,9,N,bottom,button,top,1174,1
10,I,10,N,top,slider,down,1040,1
10,I,11,N,top,button,down,1045,1
10,I,12,P,bottom,slider,top,1166,1
10,I,13,M,top,button,down,1024,1
10,I,14,G,bottom,slider,top,952,1
10,I,15,P,bottom,button,top,1038,1
10,I,16,G,top,slider,down,1222,1
10,I,17,M,bottom,button,top,1134,1
10,I,18,P,bottom,slider,top,1169,1
10,I,19,M,top,button,down,1008,1
10,I,20,N,top,slider,down,1080,1
10,I,21,N,top,button,down,984,1
10,I,22,M,bottom,slider,top,1103,1
10,I,23,N,top,button,down,847,1
10,I,24,M,top,slider,down,985,1
10,I,25,M,bottom,button,top,927,1
10,I,26,P,bottom,slider,top,833,1
10,I,27,P,top,button,down,1192,1
10,I,28,M,top,slider,down,805,1
10,I,29,P,bottom,button,top,943,1
10,I,30,P,bottom,slider,top,850,1
10,I,31,G,top,button,down,1264,1
10,I,32,N,top,slider,down,1072,1
10,I,33,P,bottom,button,top,808,1
10,I,34,M,top,slider,down,1090,1
10,I,35,P,bottom,button,top,1249,1
10,I,36,M,bottom,slider,top,848,1
10,I,37,G,bottom,button,top,986,1
10,I,38,N,bottom,slider,top,1074,1
10,I,39,G,bottom,button,top,910,1
10,I,40,G,top,slider,down,1926,1
10,I,41,M,top,button,down,934,1
10,I,42,M,bottom,slider,top,881,1
10,I,43,G,top,button,down,958,1
10,I,44,M,bottom,slider,top,832,1
10,I,45,M,bottom,button,top,960,1
10,I,46,P,bottom,slider,top,840,1
10,I,47,M,top,button,down,982,1
10,I,48,N,bottom,slider,top,1094,1
10,I,49,G,bottom,button,top,912,1
10,I,50,N,bottom,slider,top,1031,1
10,I,51,N,bottom,button,top,1054,1
10,I,52,P,top,slider,down,1264,1
10,I,53,M,bottom,button,top,976,1
10,I,54,M,top,slider,down,897,1
10,I,55,P,top,button,down,1063,1
10,I,56,G,top,slider,down,926,1
10,I,57,P,top,button,down,993,1
10,I,58,N,bottom,slider,top,855,1
10,I,59,M,top,button,down,1238,1
10,I,60,N,bottom,slider,top,600,1
10,I,61,P,top,button,down,1014,1
10,I,62,P,top,slider,down,1957,1
10,I,63,M,bottom,button,top,984,1
10,I,64,G,top,slider,down,888,1
10,I,65,N,bottom,button,top,975,1
10,I,66,N,bottom,slider,top,1736,1
10,I,67,P,top,button,down,1129,1
10,I,68,G,top,slider,down,823,1
10,I,69,N,top,button,down,1016,1
10,I,70,P,bottom,slider,top,903,1
10,I,71,M,top,button,down,949,1
10,I,72,P,top,slider,down,2817,1
10,I,73,G,bottom,button,top,862,1
10,I,74,G,top,slider,down,906,1
10,I,75,N,top,button,down,745,1
10,I,76,N,bottom,slider,top,863,1
10,I,77,N,top,button,down,744,1
10,I,78,G,bottom,slider,top,766,1
10,I,79,G,bottom,button,top,727,1
10,I,80,N,top,slider,down,688,1
10,D,1,G,bottom,button,top,1126,1
10,D,2,M,top,slider,down,931,1
10,D,3,P,bottom,button,top,673,1
10,D,4,G,bottom,slider,top,827,1
10,D,5,G,bottom,button,top,850,1
10,D,6,G,top,slider,down,700,1
10,D,7,G,top,button,down,810,1
10,D,8,P,top,slider,down,665,1
10,D,9,N,top,button,down,795,1
10,D,10,N,top,slider,down,728,1
10,D,11,N,top,button,down,816,1
10,D,12,P,top,slider,down,929,1
10,D,13,M,top,button,down,700,1
10,D,14,G,top,slider,down,748,1
10,D,15,P,top,button,down,941,1
10,D,16,G,top,slider,down,827,1
10,D,17,M,top,button,down,793,1
10,D,18,P,bottom,slider,top,1335,1
10,D,19,M,bottom,button,top,771,1
10,D,20,N,bottom,slider,top,937,1
10,D,21,N,bottom,button,top,923,1
10,D,22,M,top,slider,down,909,1
10,D,23,N,top,button,down,825,1
10,D,24,M,top,slider,down,706,1
10,D,25,M,top,button,down,745,1
10,D,26,P,top,slider,down,709,1
10,D,27,P,top,button,down,771,1
10,D,28,M,top,slider,down,742,1
10,D,29,P,bottom,button,top,754,1
10,D,30,P,top,slider,down,743,1
10,D,31,G,bottom,button,top,739,1
10,D,32,N,top,slider,down,659,1
10,D,33,P,bottom,button,top,708,1
10,D,34,M,top,slider,down,2672,1
10,D,35,P,bottom,button,top,721,1
10,D,36,M,bottom,slider,top,1579,1
10,D,37,G,bottom,button,top,703,1
10,D,38,N,bottom,slider,top,805,1
10,D,39,G,top,button,down,899,1
10,D,40,G,bottom,slider,top,792,1
10,D,41,M,top,button,down,1020,1
10,D,42,M,top,slider,down,835,1
10,D,43,G,bottom,button,top,778,1
10,D,44,M,top,slider,down,792,1
10,D,45,M,bottom,button,top,837,1
10,D,46,P,top,slider,down,887,1
10,D,47,M,top,button,down,719,1
10,D,48,N,top,slider,down,871,1
10,D,49,G,bottom,button,top,1124,1
10,D,50,N,top,slider,down,696,1
10,D,51,N,top,button,down,913,1
10,D,52,P,top,slider,down,740,1
10,D,53,M,top,button,down,780,1
10,D,54,M,top,slider,down,657,1
10,D,55,P,bottom,button,top,755,1
10,D,56,G,top,slider,down,799,1
10,D,57,P,top,button,down,814,1
10,D,58,N,bottom,slider,top,691,1
10,D,59,M,bottom,button,top,804,1
10,D,60,N,bottom,slider,top,846,1
10,D,61,P,bottom,button,top,1143,1
10,D,62,P,bottom,slider,top,740,1
10,D,63,M,bottom,button,top,812,1
10,D,64,G,bottom,slider,top,939,1
10,D,65,N,top,button,down,756,1
10,D,66,N,top,slider,down,743,1
10,D,67,P,bottom,button,top,770,1
10,D,68,G,top,slider,down,761,1
10,D,69,N,top,button,down,1469,1
10,D,70,P,top,slider,down,699,1
10,D,71,M,top,button,down,739,1
10,D,72,P,top,slider,down,735,1
10,D,73,G,top,button,down,599,1
10,D,74,G,top,slider,down,651,1
10,D,75,N,bottom,button,top,642,1
10,D,76,N,bottom,slider,top,699,1
10,D,77,N,bottom,button,top,813,1
10,D,78,G,bottom,slider,top,639,1
10,D,79,G,bottom,button,top,674,1
10,D,80,N,top,slider,down,647,1
11,I,1,M,top,button,down,2648,1
11,I,2,N,top,slider,down,2103,1
11,I,3,P,top,button,down,1191,1
11,I,4,G,bottom,slider,top,1825,1
11,I,5,N,bottom,button,top,1448,1
11,I,6,P,top,slider,down,1162,1
11,I,7,M,bottom,button,top,1160,1
11,I,8,G,top,slider,down,1056,1
11,I,9,P,bottom,button,top,1000,1
11,I,10,G,top,slider,down,872,1
11,I,11,N,top,button,down,1095,1
11,I,12,G,top,slider,down,757,1
11,I,13,N,bottom,button,top,911,1
11,I,14,G,bottom,slider,top,864,1
11,I,15,N,bottom,button,top,968,1
11,I,16,M,top,slider,down,872,1
11,I,17,P,bottom,button,top,832,1
11,I,18,N,bottom,slider,top,857,1
11,I,19,M,bottom,button,top,993,1
11,I,20,G,top,slider,down,719,1
11,I,21,N,top,button,down,736,1
11,I,22,N,top,slider,down,736,1
11,I,23,G,top,button,down,761,1
11,I,24,P,bottom,slider,top,2064,1
11,I,25,G,bottom,button,top,966,1
11,I,26,M,top,slider,down,878,1
11,I,27,M,top,button,down,887,1
11,I,28,M,bottom,slider,top,1111,1
11,I,29,G,bottom,button,top,742,1
11,I,30,N,bottom,slider,top,846,1
11,I,31,G,top,button,down,935,1
11,I,32,M,top,slider,down,840,1
11,I,33,P,bottom,button,top,791,1
11,I,34,G,bottom,slider,top,752,1
11,I,35,P,bottom,button,top,799,1
11,I,36,P,top,slider,down,645,1
11,I,37,P,top,button,down,775,1
11,I,38,P,top,slider,down,656,1
11,I,39,G,top,button,down,744,1
11,I,40,P,top,slider,down,648,1
11,I,41,N,top,button,down,777,1
11,I,42,M,top,slider,down,840,1
11,I,43,G,bottom,button,top,992,1
11,I,44,M,top,slider,down,790,1
11,I,45,M,bottom,button,top,815,1
11,I,46,P,bottom,slider,top,783,1
11,I,47,N,top,button,down,744,1
11,I,48,G,top,slider,down,704,1
11,I,49,P,bottom,button,top,1087,1
11,I,50,M,bottom,slider,top,688,1
11,I,51,P,bottom,button,down,687,0
11,I,52,P,bottom,slider,top,656,1
11,I,53,G,bottom,button,top,785,1
11,I,54,G,top,slider,down,3448,1
11,I,55,N,top,button,down,928,1
11,I,56,N,bottom,slider,top,726,1
11,I,57,M,top,button,down,694,1
11,I,58,G,top,slider,down,656,1
11,I,59,P,bottom,button,top,638,1
11,I,60,G,top,slider,down,623,1
11,I,61,N,bottom,button,top,862,1
11,I,62,P,bottom,slider,top,736,1
11,I,63,M,bottom,button,top,750,1
11,I,64,M,bottom,slider,top,974,1
11,I,65,N,top,button,down,776,1
11,I,66,N,bottom,slider,top,600,1
11,I,67,M,top,button,down,823,1
11,I,68,P,top,slider,down,679,1
11,I,69,M,bottom,button,top,552,1
11,I,70,P,bottom,slider,top,615,1
11,I,71,N,bottom,button,top,783,1
11,I,72,M,bottom,slider,top,849,1
11,I,73,N,bottom,button,top,688,1
11,I,74,M,bottom,slider,top,703,1
11,I,75,P,bottom,button,top,705,1
11,I,76,M,top,slider,down,655,1
11,I,77,N,top,button,down,688,1
11,I,78,G,top,slider,down,809,1
11,I,79,N,bottom,button,top,623,1
11,I,80,G,top,slider,down,1858,1
11,D,1,M,bottom,button,top,1050,1
11,D,2,N,top,slider,down,1971,1
11,D,3,P,top,button,down,760,1
11,D,4,G,top,slider,down,1653,1
11,D,5,N,bottom,button,top,974,1
11,D,6,P,top,slider,down,1529,1
11,D,7,M,bottom,button,top,682,1
11,D,8,G,top,slider,down,703,1
11,D,9,P,top,button,top,754,0
11,D,10,G,bottom,slider,top,877,1
11,D,11,N,top,button,down,625,1
11,D,12,G,top,slider,down,1435,1
11,D,13,N,top,button,down,637,1
11,D,14,G,bottom,slider,top,697,1
11,D,15,N,bottom,button,top,639,1
11,D,16,M,top,slider,down,1708,1
11,D,17,P,top,button,down,641,1
11,D,18,N,bottom,slider,top,1717,1
11,D,19,M,top,button,down,600,1
11,D,20,G,top,slider,down,513,1
11,D,21,N,bottom,button,top,674,1
11,D,22,N,bottom,slider,top,554,1
11,D,23,G,bottom,button,top,659,1
11,D,24,P,top,slider,down,648,1
11,D,25,G,bottom,button,top,568,1
11,D,26,M,bottom,slider,top,568,1
11,D,27,M,top,button,down,538,1
11,D,28,M,bottom,slider,失敗,null,0
11,D,29,G,top,button,down,727,1
11,D,30,N,top,slider,down,707,1
11,D,31,G,top,button,down,621,1
11,D,32,M,bottom,slider,top,778,1
11,D,33,P,bottom,button,top,793,1
11,D,34,G,top,slider,down,657,1
11,D,35,P,top,button,down,561,1
11,D,36,P,top,slider,down,677,1
11,D,37,P,bottom,button,top,612,1
11,D,38,P,bottom,slider,top,646,1
11,D,39,G,bottom,button,top,686,1
11,D,40,P,bottom,slider,top,645,1
11,D,41,N,bottom,button,top,558,1
11,D,42,M,top,slider,down,686,1
11,D,43,G,top,button,down,700,1
11,D,44,M,top,slider,down,593,1
11,D,45,M,bottom,button,top,600,1
11,D,46,P,bottom,slider,top,659,1
11,D,47,N,bottom,button,top,595,1
11,D,48,G,top,slider,down,697,1
11,D,49,P,bottom,button,top,571,1
11,D,50,M,top,slider,down,763,1
11,D,51,P,bottom,button,top,726,1
11,D,52,P,bottom,slider,top,764,1
11,D,53,G,bottom,button,top,582,1
11,D,54,G,top,slider,down,1911,1
11,D,55,N,top,button,down,656,1
11,D,56,N,top,slider,down,630,1
11,D,57,M,top,button,down,591,1
11,D,58,G,bottom,slider,top,546,1
11,D,59,P,bottom,button,top,667,1
11,D,60,G,top,slider,down,727,1
11,D,61,N,top,button,down,600,1
11,D,62,P,top,slider,down,845,1
11,D,63,M,bottom,button,down,594,0
11,D,64,M,bottom,slider,top,676,1
11,D,65,N,bottom,button,top,645,1
11,D,66,N,top,slider,down,840,1
11,D,67,M,top,button,down,688,1
11,D,68,P,bottom,slider,top,713,1
11,D,69,M,top,button,down,632,1
11,D,70,P,bottom,slider,top,692,1
11,D,71,N,bottom,button,top,699,1
11,D,72,M,bottom,slider,top,716,1
11,D,73,N,bottom,button,top,646,1
11,D,74,M,bottom,slider,top,654,1
11,D,75,P,bottom,button,top,1134,1
11,D,76,M,bottom,slider,top,767,1
11,D,77,N,top,button,down,545,1
11,D,78,G,bottom,slider,top,697,1
11,D,79,N,top,button,down,624,1
11,D,80,G,top,slider,down,659,1
12,I,1,M,bottom,button,top,1377,1
12,I,2,P,top,slider,down,1360,1
12,I,3,M,bottom,button,top,872,1
12,I,4,G,top,slider,down,737,1
12,I,5,M,bottom,button,top,921,1
12,I,6,M,bottom,slider,down,752,0
12,I,7,N,top,button,down,856,1
12,I,8,P,bottom,slider,top,3047,1
12,I,9,G,bottom,button,top,745,1
12,I,10,G,bottom,slider,top,786,1
12,I,11,M,top,button,down,793,1
12,I,12,N,bottom,slider,top,903,1
12,I,13,N,bottom,button,top,753,1
12,I,14,P,top,slider,down,744,1
12,I,15,G,bottom,button,top,975,1
12,I,16,N,top,slider,down,1521,1
12,I,17,G,top,button,down,864,1
12,I,18,G,top,slider,down,613,1
12,I,19,M,top,button,down,720,1
12,I,20,G,bottom,slider,top,681,1
12,I,21,P,top,button,down,1168,1
12,I,22,N,top,slider,down,680,1
12,I,23,M,bottom,button,top,928,1
12,I,24,P,top,slider,down,712,1
12,I,25,M,bottom,button,top,800,1
12,I,26,P,top,slider,down,632,1
12,I,27,P,top,button,down,807,1
12,I,28,N,bottom,slider,top,712,1
12,I,29,N,top,button,down,879,1
12,I,30,N,top,slider,down,672,1
12,I,31,M,top,button,down,624,1
12,I,32,P,top,slider,down,751,1
12,I,33,G,top,button,down,832,1
12,I,34,P,bottom,slider,top,1168,1
12,I,35,G,top,button,down,985,1
12,I,36,P,bottom,slider,top,681,1
12,I,37,M,top,button,down,783,1
12,I,38,G,top,slider,down,774,1
12,I,39,G,top,button,down,671,1
12,I,40,M,top,slider,down,1241,1
12,I,41,G,top,button,down,559,1
12,I,42,N,top,slider,down,1416,1
12,I,43,M,bottom,button,top,776,1
12,I,44,M,top,slider,down,719,1
12,I,45,N,top,button,down,680,1
12,I,46,P,bottom,slider,top,936,1
12,I,47,M,top,button,down,904,1
12,I,48,N,bottom,slider,top,783,1
12,I,49,M,bottom,button,top,855,1
12,I,50,G,top,slider,down,1143,1
12,I,51,G,top,button,down,871,1
12,I,52,N,bottom,slider,top,649,1
12,I,53,M,bottom,button,top,719,1
12,I,54,P,top,slider,down,736,1
12,I,55,G,top,button,down,664,1
12,I,56,P,bottom,slider,top,768,1
12,I,57,G,bottom,button,top,711,1
12,I,58,G,top,slider,down,594,1
12,I,59,M,top,button,down,649,1
12,I,60,N,top,slider,down,704,1
12,I,61,N,bottom,button,top,1272,1
12,I,62,N,bottom,slider,top,614,1
12,I,63,N,top,button,down,761,1
12,I,64,G,bottom,slider,top,559,1
12,I,65,P,bottom,button,top,944,1
12,I,66,M,top,slider,down,592,1
12,I,67,G,top,button,down,1137,1
12,I,68,P,bottom,slider,top,767,1
12,I,69,P,bottom,button,top,551,1
12,I,70,M,bottom,slider,top,1407,1
12,I,71,P,top,button,down,984,1
12,I,72,N,top,slider,down,633,1
12,I,73,N,bottom,button,top,784,1
12,I,74,N,bottom,slider,top,790,1
12,I,75,N,bottom,button,top,616,1
12,I,76,P,bottom,slider,top,1096,1
12,I,77,P,top,button,down,847,1
12,I,78,P,top,slider,down,704,1
12,I,79,G,bottom,button,top,648,1
12,I,80,M,top,slider,down,553,1
12,D,1,M,bottom,button,top,958,1
12,D,2,P,bottom,slider,top,912,1
12,D,3,M,bottom,button,top,811,1
12,D,4,G,top,slider,down,899,1
12,D,5,M,bottom,button,top,663,1
12,D,6,M,bottom,slider,top,696,1
12,D,7,N,bottom,button,top,660,1
12,D,8,P,top,slider,down,980,1
12,D,9,G,bottom,button,top,702,1
12,D,10,G,bottom,slider,top,725,1
12,D,11,M,bottom,button,top,635,1
12,D,12,N,bottom,slider,top,705,1
12,D,13,N,top,button,down,976,1
12,D,14,P,top,slider,down,959,1
12,D,15,G,top,button,down,740,1
12,D,16,N,bottom,slider,top,1485,1
12,D,17,G,top,button,down,663,1
12,D,18,G,bottom,slider,top,642,1
12,D,19,M,top,button,down,675,1
12,D,20,G,bottom,slider,top,767,1
12,D,21,P,bottom,button,top,801,1
12,D,22,N,top,slider,down,936,1
12,D,23,M,top,button,down,1169,1
12,D,24,P,top,slider,down,685,1
12,D,25,M,top,button,down,717,1
12,D,26,P,bottom,slider,top,688,1
12,D,27,P,bottom,button,top,837,1
12,D,28,N,bottom,slider,top,657,1
12,D,29,N,bottom,button,top,672,1
12,D,30,N,bottom,slider,top,582,1
12,D,31,M,bottom,button,top,616,1
12,D,32,P,top,slider,down,952,1
12,D,33,G,top,button,down,740,1
12,D,34,P,top,slider,down,631,1
12,D,35,G,bottom,button,top,834,1
12,D,36,P,bottom,slider,top,614,1
12,D,37,M,bottom,button,top,770,1
12,D,38,G,bottom,slider,top,1795,1
12,D,39,G,top,button,down,680,1
12,D,40,M,bottom,slider,top,748,1
12,D,41,G,bottom,button,top,632,1
12,D,42,N,bottom,slider,top,1530,1
12,D,43,M,bottom,button,top,650,1
12,D,44,M,top,slider,down,986,1
12,D,45,N,top,button,down,763,1
12,D,46,P,bottom,slider,top,682,1
12,D,47,M,top,button,down,805,1
12,D,48,N,top,slider,down,783,1
12,D,49,M,bottom,button,top,685,1
12,D,50,G,top,slider,down,812,1
12,D,51,G,bottom,button,top,610,1
12,D,52,N,top,slider,down,1805,1
12,D,53,M,bottom,button,top,618,1
12,D,54,P,bottom,slider,top,816,1
12,D,55,G,top,button,down,718,1
12,D,56,P,bottom,slider,top,1717,1
12,D,57,G,bottom,button,top,835,1
12,D,58,G,top,slider,down,805,1
12,D,59,M,bottom,button,top,589,1
12,D,60,N,bottom,slider,top,823,1
12,D,61,N,bottom,button,top,687,1
12,D,62,N,top,slider,down,830,1
12,D,63,N,top,button,down,679,1
12,D,64,G,bottom,slider,top,828,1
12,D,65,P,top,button,down,796,1
12,D,66,M,top,slider,down,850,1
12,D,67,G,top,button,down,590,1
12,D,68,P,top,slider,down,611,1
12,D,69,P,top,button,down,643,1
12,D,70,M,top,slider,down,3899,1
12,D,71,P,bottom,button,top,1039,1
12,D,72,N,top,slider,down,907,1
12,D,73,N,top,button,down,671,1
12,D,74,N,bottom,slider,top,783,1
12,D,75,N,top,button,down,566,1
12,D,76,P,bottom,slider,top,664,1
12,D,77,P,top,button,down,590,1
12,D,78,P,bottom,slider,top,711,1
12,D,79,G,bottom,button,top,806,1
12,D,80,M,bottom,slider,top,733,1
13,I,1,M,top,button,down,1384,1
13,I,2,N,top,slider,down,1383,1
13,I,3,N,bottom,button,top,1414,1
13,I,4,N,top,slider,down,1057,1
13,I,5,P,bottom,button,top,2001,1
13,I,6,P,bottom,slider,top,1032,1
13,I,7,N,top,button,down,1167,1
13,I,8,G,top,slider,down,928,1
13,I,9,G,top,button,down,1248,1
13,I,10,G,bottom,slider,down,1369,0
13,I,11,M,top,button,down,1744,1
13,I,12,P,top,slider,down,1149,1
13,I,13,N,bottom,button,top,1055,1
13,I,14,G,top,slider,down,727,1
13,I,15,P,top,button,down,904,1
13,I,16,M,bottom,slider,top,1038,1
13,I,17,P,bottom,button,down,856,0
13,I,18,M,bottom,slider,top,783,1
13,I,19,M,top,button,down,737,1
13,I,20,G,top,slider,down,1808,1
13,I,21,N,bottom,button,top,727,1
13,I,22,P,top,slider,down,752,1
13,I,23,M,bottom,button,top,976,1
13,I,24,M,top,slider,down,833,1
13,I,25,N,bottom,button,top,728,1
13,I,26,M,bottom,slider,down,793,0
13,I,27,P,bottom,button,down,1182,0
13,I,28,P,top,slider,down,848,1
13,I,29,N,bottom,button,top,649,1
13,I,30,M,top,slider,down,790,1
13,I,31,P,bottom,button,top,736,1
13,I,32,P,bottom,slider,top,929,1
13,I,33,N,top,button,down,880,1
13,I,34,G,bottom,slider,top,758,1
13,I,35,G,top,button,down,930,1
13,I,36,P,bottom,slider,top,735,1
13,I,37,M,bottom,button,top,810,1
13,I,38,G,bottom,slider,top,2503,1
13,I,39,M,top,button,down,1056,1
13,I,40,P,bottom,slider,top,961,1
13,I,41,N,bottom,button,top,727,1
13,I,42,M,top,slider,down,751,1
13,I,43,P,top,button,down,1007,1
13,I,44,N,top,slider,down,898,1
13,I,45,G,top,button,down,824,1
13,I,46,M,bottom,slider,top,712,1
13,I,47,G,bottom,button,top,848,1
13,I,48,M,top,slider,down,697,1
13,I,49,M,bottom,button,top,753,1
13,I,50,P,bottom,slider,top,854,1
13,I,51,G,bottom,button,top,1320,1
13,I,52,N,top,slider,down,734,1
13,I,53,P,bottom,button,top,721,1
13,I,54,P,bottom,slider,top,671,1
13,I,55,G,top,button,down,712,1
13,I,56,N,top,slider,down,1006,1
13,I,57,P,top,button,down,786,1
13,I,58,G,bottom,slider,top,679,1
13,I,59,G,bottom,button,top,721,1
13,I,60,M,top,slider,down,736,1
13,I,61,P,bottom,button,top,944,1
13,I,62,M,bottom,slider,top,661,1
13,I,63,N,top,button,down,711,1
13,I,64,G,bottom,slider,top,759,1
13,I,65,G,top,button,down,1185,1
13,I,66,G,top,slider,down,688,1
13,I,67,P,bottom,button,top,832,1
13,I,68,N,bottom,slider,top,705,1
13,I,69,N,top,button,down,744,1
13,I,70,M,bottom,slider,top,752,1
13,I,71,G,bottom,button,top,704,1
13,I,72,N,bottom,slider,top,560,1
13,I,73,N,top,button,down,978,1
13,I,74,P,top,slider,down,927,1
13,I,75,M,top,button,down,1023,1
13,I,76,M,top,slider,down,702,1
13,I,77,N,bottom,button,top,814,1
13,I,78,G,top,slider,down,638,1
13,I,79,G,bottom,button,top,616,1
13,I,80,N,bottom,slider,top,840,1
13,D,1,M,bottom,button,top,819,1
13,D,2,N,top,slider,down,1357,1
13,D,3,N,top,button,down,811,1
13,D,4,N,top,slider,down,632,1
13,D,5,P,bottom,button,top,644,1
13,D,6,P,top,slider,down,1610,1
13,D,7,N,bottom,button,top,572,1
13,D,8,G,bottom,slider,top,1895,1
13,D,9,G,bottom,button,top,645,1
13,D,10,G,bottom,slider,top,620,1
13,D,11,M,top,button,down,623,1
13,D,12,P,bottom,slider,top,570,1
13,D,13,N,top,button,down,573,1
13,D,14,G,top,slider,失敗,null,0
13,D,15,P,bottom,button,top,1404,1
13,D,16,M,top,slider,down,675,1
13,D,17,P,bottom,button,top,729,1
13,D,18,M,bottom,slider,top,2132,1
13,D,19,M,bottom,button,top,625,1
13,D,20,G,top,slider,down,651,1
13,D,21,N,top,button,down,855,1
13,D,22,P,top,slider,down,547,1
13,D,23,M,bottom,button,top,622,1
13,D,24,M,top,slider,down,571,1
13,D,25,N,bottom,button,top,635,1
13,D,26,M,top,slider,down,682,1
13,D,27,P,top,button,down,711,1
13,D,28,P,bottom,slider,top,665,1
13,D,29,N,top,button,down,705,1
13,D,30,M,bottom,slider,top,717,1
13,D,31,P,bottom,button,top,675,1
13,D,32,P,bottom,slider,top,530,1
13,D,33,N,bottom,button,top,549,1
13,D,34,G,bottom,slider,top,536,1
13,D,35,G,top,button,down,615,1
13,D,36,P,top,slider,down,2437,1
13,D,37,M,top,button,down,655,1
13,D,38,G,bottom,slider,top,657,1
13,D,39,M,bottom,button,top,613,1
13,D,40,P,bottom,slider,top,622,1
13,D,41,N,bottom,button,top,648,1
13,D,42,M,bottom,slider,top,842,1
13,D,43,P,bottom,button,top,710,1
13,D,44,N,top,slider,down,632,1
13,D,45,G,top,button,down,716,1
13,D,46,M,top,slider,down,828,1
13,D,47,G,top,button,down,656,1
13,D,48,M,bottom,slider,top,631,1
13,D,49,M,bottom,button,top,628,1
13,D,50,P,bottom,slider,top,627,1
13,D,51,G,bottom,button,top,685,1
13,D,52,N,bottom,slider,top,1791,1
13,D,53,P,bottom,button,top,668,1
13,D,54,P,bottom,slider,top,617,1
13,D,55,G,bottom,button,top,707,1
13,D,56,N,top,slider,down,741,1
13,D,57,P,top,button,down,1721,1
13,D,58,G,top,slider,down,654,1
13,D,59,G,top,button,down,641,1
13,D,60,M,top,slider,down,658,1
13,D,61,P,bottom,button,top,811,1
13,D,62,M,bottom,slider,down,696,0
13,D,63,N,top,button,down,773,1
13,D,64,G,bottom,slider,top,608,1
13,D,65,G,top,button,down,641,1
13,D,66,G,bottom,slider,top,728,1
13,D,67,P,bottom,button,top,881,1
13,D,68,N,top,slider,down,657,1
13,D,69,N,top,button,down,658,1
13,D,70,M,bottom,slider,top,1942,1
13,D,71,G,bottom,button,top,554,1
13,D,72,N,bottom,slider,top,580,1
13,D,73,N,bottom,button,top,543,1
13,D,74,P,bottom,slider,top,528,1
13,D,75,M,bottom,button,top,616,1
13,D,76,M,bottom,slider,top,596,1
13,D,77,N,bottom,button,top,583,1
13,D,78,G,top,slider,down,632,1
13,D,79,G,bottom,button,top,722,1
13,D,80,N,top,slider,down,1774,1
14,D,1,M,top,button,down,1923,1
14,D,2,G,bottom,slider,top,1825,1
14,D,3,P,bottom,button,top,1368,1
14,D,4,M,top,slider,down,1426,1
14,D,5,M,top,button,down,1454,1
14,D,6,M,bottom,slider,top,1530,1
14,D,7,P,bottom,button,top,1402,1
14,D,8,G,top,slider,down,1392,1
14,D,9,G,bottom,button,top,1171,1
14,D,10,N,bottom,slider,top,1462,1
14,D,11,N,top,button,down,1980,1
14,D,12,M,top,slider,down,1094,1
14,D,13,M,bottom,button,top,1170,1
14,D,14,P,top,slider,down,1982,1
14,D,15,P,bottom,button,top,1181,1
14,D,16,M,bottom,slider,top,1245,1
14,D,17,M,bottom,button,top,2503,1
14,D,18,P,top,slider,down,1368,1
14,D,19,M,top,button,down,1788,1
14,D,20,P,bottom,slider,top,3298,1
14,D,21,N,bottom,button,top,1669,1
14,D,22,G,top,slider,down,1136,1
14,D,23,P,bottom,button,top,1237,1
14,D,24,M,bottom,slider,top,1273,1
14,D,25,G,bottom,button,top,1747,1
14,D,26,G,top,slider,down,1137,1
14,D,27,M,top,button,down,1153,1
14,D,28,P,bottom,slider,top,1247,1
14,D,29,G,bottom,button,top,1000,1
14,D,30,N,bottom,slider,top,1360,1
14,D,31,G,bottom,button,top,942,1
14,D,32,M,top,slider,down,1537,1
14,D,33,P,bottom,button,top,1222,1
14,D,34,N,bottom,slider,top,4056,1
14,D,35,M,top,button,down,1179,1
14,D,36,N,top,slider,down,1190,1
14,D,37,N,top,button,down,932,1
14,D,38,P,bottom,slider,top,1222,1
14,D,39,N,bottom,button,top,914,1
14,D,40,N,bottom,slider,top,913,1
14,D,41,M,bottom,button,top,997,1
14,D,42,N,top,slider,down,1037,1
14,D,43,N,top,button,down,1181,1
14,D,44,P,top,slider,down,1090,1
14,D,45,N,bottom,button,top,1042,1
14,D,46,N,top,slider,down,1014,1
14,D,47,N,bottom,button,top,835,1
14,D,48,G,bottom,slider,top,974,1
14,D,49,N,top,button,down,879,1
14,D,50,G,bottom,slider,top,1030,1
14,D,51,N,bottom,button,top,933,1
14,D,52,M,bottom,slider,top,1208,1
14,D,53,M,top,button,down,935,1
14,D,54,N,top,slider,down,1013,1
14,D,55,G,bottom,button,top,974,1
14,D,56,G,bottom,slider,top,2061,1
14,D,57,M,bottom,button,top,1052,1
14,D,58,P,top,slider,down,967,1
14,D,59,P,bottom,button,top,3243,1
14,D,60,N,top,slider,down,1074,1
14,D,61,P,top,button,down,1171,1
14,D,62,P,bottom,slider,top,1061,1
14,D,63,P,bottom,button,top,984,1
14,D,64,M,top,slider,down,1085,1
14,D,65,G,top,button,down,969,1
14,D,66,G,top,slider,down,1094,1
14,D,67,P,bottom,button,top,1043,1
14,D,68,G,top,slider,down,960,1
14,D,69,M,bottom,button,top,1013,1
14,D,70,G,bottom,slider,top,901,1
14,D,71,G,top,button,down,827,1
14,D,72,G,top,slider,down,919,1
14,D,73,G,bottom,button,top,933,1
14,D,74,N,bottom,slider,top,838,1
14,D,75,P,bottom,button,top,804,1
14,D,76,P,top,slider,down,858,1
14,D,77,G,top,button,down,761,1
14,D,78,M,bottom,slider,top,828,1
14,D,79,P,top,button,down,815,1
14,D,80,N,bottom,slider,top,871,1
14,I,1,M,top,button,down,1399,1
14,I,2,G,top,slider,down,1040,1
14,I,3,P,bottom,button,top,991,1
14,I,4,M,bottom,slider,top,1120,1
14,I,5,M,top,button,down,838,1
14,I,6,M,bottom,slider,top,1041,1
14,I,7,P,top,button,down,1359,1
14,I,8,G,bottom,slider,top,1534,1
14,I,9,G,bottom,button,top,1231,1
14,I,10,N,top,slider,down,1295,1
14,I,11,N,top,button,down,864,1
14,I,12,M,top,slider,down,946,1
14,I,13,M,top,button,down,1025,1
14,I,14,P,bottom,slider,top,1697,1
14,I,15,P,bottom,button,top,1423,1
14,I,16,M,top,slider,down,1328,1
14,I,17,M,top,button,down,1031,1
14,I,18,P,top,slider,down,1248,1
14,I,19,M,top,button,down,1040,1
14,I,20,P,top,slider,down,960,1
14,I,21,N,bottom,button,top,1457,1
14,I,22,G,bottom,slider,top,1051,1
14,I,23,P,bottom,button,top,1823,1
14,I,24,M,top,slider,down,1458,1
14,I,25,G,bottom,button,top,2392,1
14,I,26,G,bottom,slider,top,960,1
14,I,27,M,bottom,button,top,1319,1
14,I,28,P,top,slider,down,1200,1
14,I,29,G,bottom,button,top,1039,1
14,I,30,N,top,slider,down,1102,1
14,I,31,G,bottom,button,top,1080,1
14,I,32,M,bottom,slider,top,913,1
14,I,33,P,bottom,button,top,1039,1
14,I,34,N,top,slider,down,1090,1
14,I,35,M,bottom,button,top,1640,1
14,I,36,N,top,slider,down,1307,1
14,I,37,N,bottom,button,top,984,1
14,I,38,P,top,slider,down,1553,1
14,I,39,N,bottom,button,top,1135,1
14,I,40,N,bottom,slider,top,968,1
14,I,41,M,bottom,button,top,1128,1
14,I,42,N,bottom,slider,top,871,1
14,I,43,N,top,button,down,839,1
14,I,44,P,bottom,slider,top,1489,1
14,I,45,N,bottom,button,top,1432,1
14,I,46,N,bottom,slider,top,1512,1
14,I,47,N,top,button,down,1238,1
14,I,48,G,top,slider,down,976,1
14,I,49,N,bottom,button,top,1159,1
14,I,50,G,bottom,slider,top,904,1
14,I,51,N,bottom,button,top,1008,1
14,I,52,M,bottom,slider,top,953,1
14,I,53,M,bottom,button,top,1023,1
14,I,54,N,top,slider,down,1012,1
14,I,55,G,bottom,button,top,1089,1
14,I,56,G,bottom,slider,top,1064,1
14,I,57,M,top,button,down,848,1
14,I,58,P,top,slider,down,968,1
14,I,59,P,top,button,down,1663,1
14,I,60,N,bottom,slider,top,992,1
14,I,61,P,top,button,down,959,1
14,I,62,P,top,slider,down,824,1
14,I,63,P,top,button,down,1017,1
14,I,64,M,bottom,slider,top,864,1
14,I,65,G,top,button,down,984,1
14,I,66,G,top,slider,down,1064,1
14,I,67,P,bottom,button,top,929,1
14,I,68,G,top,slider,down,864,1
14,I,69,M,bottom,button,top,1218,1
14,I,70,G,bottom,slider,top,863,1
14,I,71,G,top,button,down,929,1
14,I,72,G,top,slider,down,848,1
14,I,73,G,bottom,button,top,1208,1
14,I,74,N,bottom,slider,top,880,1
14,I,75,P,bottom,button,top,1825,1
14,I,76,P,bottom,slider,top,888,1
14,I,77,G,top,button,down,1008,1
14,I,78,M,bottom,slider,top,840,1
14,I,79,P,bottom,button,top,1177,1
14,I,80,N,bottom,slider,top,1354,1
15,D,1,N,top,button,down,939,1
15,D,2,P,bottom,slider,top,795,1
15,D,3,P,bottom,button,top,1176,1
15,D,4,P,bottom,slider,top,919,1
15,D,5,P,top,button,down,871,1
15,D,6,P,bottom,slider,top,1702,1
15,D,7,P,top,button,down,743,1
15,D,8,N,bottom,slider,top,3509,1
15,D,9,N,top,button,down,707,1
15,D,10,N,bottom,slider,top,4200,1
15,D,11,G,top,button,down,768,1
15,D,12,M,bottom,slider,top,731,1
15,D,13,N,bottom,button,top,1070,1
15,D,14,N,bottom,slider,top,789,1
15,D,15,M,bottom,button,top,795,1
15,D,16,P,top,slider,down,1771,1
15,D,17,N,bottom,button,top,785,1
15,D,18,M,top,slider,down,1780,1
15,D,19,G,top,button,down,744,1
15,D,20,M,bottom,slider,top,748,1
15,D,21,P,top,button,down,874,1
15,D,22,M,top,slider,down,1896,1
15,D,23,G,bottom,button,top,786,1
15,D,24,G,top,slider,down,729,1
15,D,25,N,bottom,button,top,714,1
15,D,26,M,bottom,slider,top,2686,1
15,D,27,M,top,button,down,766,1
15,D,28,N,top,slider,down,830,1
15,D,29,G,bottom,button,top,734,1
15,D,30,N,top,slider,down,2810,1
15,D,31,P,top,button,down,700,1
15,D,32,G,bottom,slider,top,1068,1
15,D,33,N,top,button,down,699,1
15,D,34,P,bottom,slider,top,633,1
15,D,35,M,top,button,down,715,1
15,D,36,M,bottom,slider,top,710,1
15,D,37,P,top,button,down,633,1
15,D,38,P,bottom,slider,top,633,1
15,D,39,N,bottom,button,top,683,1
15,D,40,P,bottom,slider,top,648,1
15,D,41,G,top,button,down,644,1
15,D,42,G,bottom,slider,top,635,1
15,D,43,M,bottom,button,top,657,1
15,D,44,G,top,slider,down,3341,1
15,D,45,P,bottom,button,top,694,1
15,D,46,P,bottom,slider,top,665,1
15,D,47,G,bottom,button,top,800,1
15,D,48,G,bottom,slider,top,2340,1
15,D,49,P,top,button,down,714,1
15,D,50,N,bottom,slider,top,760,1
15,D,51,M,top,button,down,702,1
15,D,52,P,top,slider,down,661,1
15,D,53,N,bottom,button,top,730,1
15,D,54,G,top,slider,down,2647,1
15,D,55,G,bottom,button,top,688,1
15,D,56,N,top,slider,down,743,1
15,D,57,G,bottom,button,top,616,1
15,D,58,M,top,slider,down,668,1
15,D,59,M,bottom,button,top,740,1
15,D,60,M,top,slider,down,799,1
15,D,61,N,bottom,button,top,700,1
15,D,62,G,bottom,slider,top,583,1
15,D,63,G,bottom,button,top,815,1
15,D,64,N,bottom,slider,top,1700,1
15,D,65,M,top,button,down,626,1
15,D,66,N,top,slider,down,1689,1
15,D,67,N,bottom,button,top,658,1
15,D,68,M,bottom,slider,top,657,1
15,D,69,M,top,button,down,647,1
15,D,70,G,top,slider,down,1532,1
15,D,71,P,bottom,button,top,702,1
15,D,72,G,bottom,slider,top,602,1
15,D,73,P,top,button,down,1129,1
15,D,74,P,bottom,slider,top,531,1
15,D,75,M,bottom,button,top,676,1
15,D,76,M,bottom,slider,top,634,1
15,D,77,N,top,button,down,698,1
15,D,78,G,bottom,slider,top,791,1
15,D,79,G,top,button,down,677,1
15,D,80,M,bottom,slider,top,641,1
15,I,1,N,bottom,button,top,2616,1
15,I,2,P,bottom,slider,top,1936,1
15,I,3,P,top,button,top,863,0
15,I,4,P,bottom,slider,top,689,1
15,I,5,P,bottom,button,down,961,0
15,I,6,P,top,slider,down,705,1
15,I,7,P,bottom,button,top,864,1
15,I,8,N,top,slider,down,969,1
15,I,9,N,bottom,button,top,832,1
15,I,10,N,bottom,slider,down,791,0
15,I,11,G,top,button,down,767,1
15,I,12,M,bottom,slider,top,1966,1
15,I,13,N,top,button,down,816,1
15,I,14,N,top,slider,down,615,1
15,I,15,M,top,button,down,713,1
15,I,16,P,top,slider,down,2353,1
15,I,17,N,top,button,down,776,1
15,I,18,M,top,slider,down,824,1
15,I,19,G,top,button,down,833,1
15,I,20,M,top,slider,down,726,1
15,I,21,P,bottom,button,top,624,1
15,I,22,M,bottom,slider,top,1913,1
15,I,23,G,bottom,button,down,904,0
15,I,24,G,top,slider,down,616,1
15,I,25,N,bottom,button,top,841,1
15,I,26,M,bottom,slider,top,695,1
15,I,27,M,bottom,button,down,896,0
15,I,28,N,bottom,slider,top,577,1
15,I,29,G,top,button,down,977,1
15,I,30,N,top,slider,down,1919,1
15,I,31,P,top,button,top,863,0
15,I,32,G,bottom,slider,top,694,1
15,I,33,N,bottom,button,top,824,1
15,I,34,P,bottom,slider,top,1336,1
15,I,35,M,bottom,button,top,799,1
15,I,36,M,top,slider,down,1865,1
15,I,37,P,bottom,button,top,752,1
15,I,38,P,bottom,slider,top,711,1
15,I,39,N,top,button,down,1385,1
15,I,40,P,top,slider,down,1448,1
15,I,41,G,top,button,top,913,0
15,I,42,G,top,slider,down,760,1
15,I,43,M,bottom,button,top,840,1
15,I,44,G,top,slider,down,818,1
15,I,45,P,bottom,button,top,816,1
15,I,46,P,bottom,slider,top,1945,1
15,I,47,G,bottom,button,top,816,1
15,I,48,G,bottom,slider,top,584,1
15,I,49,P,bottom,button,down,969,0
15,I,50,N,bottom,slider,top,681,1
15,I,51,M,top,button,down,1064,1
15,I,52,P,bottom,slider,top,3513,1
15,I,53,N,bottom,button,top,871,1
15,I,54,G,top,slider,down,601,1
15,I,55,G,top,button,top,1233,0
15,I,56,N,bottom,slider,top,607,1
15,I,57,G,top,button,down,969,1
15,I,58,M,top,slider,down,663,1
15,I,59,M,bottom,button,top,888,1
15,I,60,M,top,slider,down,1938,1
15,I,61,N,top,button,down,1368,1
15,I,62,G,bottom,slider,top,2208,1
15,I,63,G,bottom,button,top,911,1
15,I,64,N,bottom,slider,top,840,1
15,I,65,M,top,button,down,1143,1
15,I,66,N,bottom,slider,top,1775,1
15,I,67,N,bottom,button,top,1048,1
15,I,68,M,top,slider,down,887,1
15,I,69,M,top,button,down,1079,1
15,I,70,G,top,slider,down,1927,1
15,I,71,P,top,button,down,975,1
15,I,72,G,top,slider,down,977,1
15,I,73,P,bottom,button,top,1384,1
15,I,74,P,top,slider,down,711,1
15,I,75,M,bottom,button,top,696,1
15,I,76,M,top,slider,down,671,1
15,I,77,N,top,button,down,1104,1
15,I,78,G,top,slider,down,666,1
15,I,79,G,top,button,down,1183,1
15,I,80,M,top,slider,down,2904,1
16,I,1,P,top,button,top,1663,0
16,I,2,P,bottom,slider,top,1352,1
16,I,3,G,bottom,button,top,1552,1
16,I,4,P,top,slider,down,1183,1
16,I,5,M,bottom,button,top,1152,1
16,I,6,M,top,slider,down,1096,1
16,I,7,N,bottom,button,top,1486,1
16,I,8,G,top,slider,down,1520,1
16,I,9,N,bottom,button,top,1191,1
16,I,10,M,top,slider,down,1639,1
16,I,11,N,bottom,button,top,1351,1
16,I,12,M,top,slider,down,3727,1
16,I,13,P,top,button,down,1343,1
16,I,14,M,top,slider,down,2431,1
16,I,15,N,bottom,button,top,1095,1
16,I,16,M,top,slider,down,1703,1
16,I,17,N,top,button,down,1352,1
16,I,18,N,bottom,slider,top,1247,1
16,I,19,P,bottom,button,down,2913,0
16,I,20,N,top,slider,down,951,1
16,I,21,G,bottom,button,top,1656,1
16,I,22,M,bottom,slider,top,1031,1
16,I,23,G,top,button,down,889,1
16,I,24,P,bottom,slider,top,2055,1
16,I,25,N,bottom,button,top,1271,1
16,I,26,N,bottom,slider,top,1024,1
16,I,27,M,bottom,button,top,1033,1
16,I,28,N,bottom,slider,top,849,1
16,I,29,P,bottom,button,top,1032,1
16,I,30,G,bottom,slider,top,905,1
16,I,31,G,top,button,down,1184,1
16,I,32,G,top,slider,top,969,0
16,I,33,P,top,button,down,1799,1
16,I,34,G,bottom,slider,top,1232,1
16,I,35,G,bottom,button,top,961,1
16,I,36,G,bottom,slider,top,961,1
16,I,37,N,top,button,down,879,1
16,I,38,G,top,slider,top,809,0
16,I,39,P,bottom,button,top,952,1
16,I,40,P,bottom,slider,top,928,1
16,I,41,M,bottom,button,top,992,1
16,I,42,M,top,slider,top,954,0
16,I,43,N,bottom,button,top,945,1
16,I,44,M,top,slider,top,953,0
16,I,45,N,bottom,button,down,1497,0
16,I,46,P,bottom,slider,top,2207,1
16,I,47,G,top,button,down,1215,1
16,I,48,N,top,slider,down,864,1
16,I,49,G,top,button,top,807,0
16,I,50,G,bottom,slider,top,935,1
16,I,51,G,top,button,down,1105,1
16,I,52,N,bottom,slider,top,1145,1
16,I,53,P,bottom,button,top,919,1
16,I,54,G,top,slider,top,1072,0
16,I,55,M,bottom,button,top,1016,1
16,I,56,N,top,slider,top,808,0
16,I,57,P,top,button,top,863,0
16,I,58,P,bottom,slider,top,984,1
16,I,59,G,bottom,button,top,1184,1
16,I,60,M,bottom,slider,top,967,1
16,I,61,N,top,button,top,905,0
16,I,62,M,bottom,slider,top,888,1
16,I,63,G,top,button,top,881,0
16,I,64,P,bottom,slider,top,1120,1
16,I,65,P,bottom,button,top,841,1
16,I,66,M,top,slider,down,1119,1
16,I,67,M,top,button,down,2120,1
16,I,68,M,bottom,slider,top,936,1
16,I,69,P,top,button,down,1031,1
16,I,70,P,bottom,slider,top,1026,1
16,I,71,P,bottom,button,top,1311,1
16,I,72,M,bottom,slider,top,959,1
16,I,73,P,bottom,button,top,1048,1
16,I,74,N,bottom,slider,top,896,1
16,I,75,N,top,button,down,864,1
16,I,76,G,top,slider,down,776,1
16,I,77,G,bottom,button,top,935,1
16,I,78,N,top,slider,down,944,1
16,I,79,M,top,button,down,1128,1
16,I,80,M,top,slider,down,952,1
16,D,1,P,top,button,down,821,1
16,D,2,P,top,slider,down,1371,1
16,D,3,G,bottom,button,top,755,1
16,D,4,P,top,slider,down,871,1
16,D,5,M,bottom,button,top,820,1
16,D,6,M,top,slider,down,966,1
16,D,7,N,bottom,button,top,812,1
16,D,8,G,top,slider,down,955,1
16,D,9,N,bottom,button,top,724,1
16,D,10,M,top,slider,down,934,1
16,D,11,N,top,button,down,906,1
16,D,12,M,top,slider,down,1072,1
16,D,13,P,bottom,button,top,1466,1
16,D,14,M,top,slider,down,803,1
16,D,15,N,bottom,button,top,831,1
16,D,16,M,top,slider,down,977,1
16,D,17,N,bottom,button,top,1238,1
16,D,18,N,top,slider,down,857,1
16,D,19,P,top,button,top,788,0
16,D,20,N,top,slider,down,872,1
16,D,21,G,top,button,down,1066,1
16,D,22,M,bottom,slider,down,1420,0
16,D,23,G,top,button,down,712,1
16,D,24,P,top,slider,down,871,1
16,D,25,N,bottom,button,top,917,1
16,D,26,N,bottom,slider,top,742,1
16,D,27,M,top,button,down,940,1
16,D,28,N,bottom,slider,top,709,1
16,D,29,P,top,button,down,742,1
16,D,30,G,bottom,slider,top,728,1
16,D,31,G,bottom,button,top,1152,1
16,D,32,G,bottom,slider,top,795,1
16,D,33,P,top,button,down,780,1
16,D,34,G,top,slider,down,1692,1
16,D,35,G,bottom,button,top,845,1
16,D,36,G,bottom,slider,top,741,1
16,D,37,N,top,button,down,786,1
16,D,38,G,bottom,slider,top,753,1
16,D,39,P,bottom,button,top,1585,1
16,D,40,P,bottom,slider,top,1813,1
16,D,41,M,top,button,down,1017,1
16,D,42,M,bottom,slider,top,913,1
16,D,43,N,bottom,button,top,735,1
16,D,44,M,bottom,slider,down,1130,0
16,D,45,N,top,button,top,855,0
16,D,46,P,top,slider,down,815,1
16,D,47,G,top,button,top,972,0
16,D,48,N,top,slider,down,836,1
16,D,49,G,top,button,top,897,0
16,D,50,G,bottom,slider,top,828,1
16,D,51,G,top,button,down,897,1
16,D,52,N,bottom,slider,top,729,1
16,D,53,P,bottom,button,top,784,1
16,D,54,G,top,slider,down,752,1
16,D,55,M,bottom,button,top,871,1
16,D,56,N,bottom,slider,top,1806,1
16,D,57,P,top,button,down,805,1
16,D,58,P,bottom,slider,top,804,1
16,D,59,G,bottom,button,top,815,1
16,D,60,M,top,slider,down,1668,1
16,D,61,N,bottom,button,top,788,1
16,D,62,M,top,slider,down,794,1
16,D,63,G,bottom,button,top,726,1
16,D,64,P,top,slider,down,1119,1
16,D,65,P,top,button,down,947,1
16,D,66,M,top,slider,down,783,1
16,D,67,M,top,button,top,914,0
16,D,68,M,top,slider,down,903,1
16,D,69,P,top,button,down,933,1
16,D,70,P,bottom,slider,top,1155,1
16,D,71,P,bottom,button,top,933,1
16,D,72,M,top,slider,down,701,1
16,D,73,P,bottom,button,top,736,1
16,D,74,N,top,slider,down,730,1
16,D,75,N,top,button,down,858,1
16,D,76,G,bottom,slider,top,2084,1
16,D,77,G,top,button,down,810,1
16,D,78,N,bottom,slider,top,642,1
16,D,79,M,bottom,button,top,728,1
16,D,80,M,bottom,slider,top,915,1
17,I,1,M,top,button,down,1305,1
17,I,2,N,top,slider,down,1153,1
17,I,3,M,top,button,down,1194,1
17,I,4,M,bottom,slider,top,1096,1
17,I,5,P,top,button,down,1408,1
17,I,6,G,top,slider,down,920,1
17,I,7,N,bottom,button,top,1247,1
17,I,8,M,bottom,slider,top,1313,1
17,I,9,G,bottom,button,top,928,1
17,I,10,N,bottom,slider,top,1151,1
17,I,11,G,top,button,down,984,1
17,I,12,M,bottom,slider,top,953,1
17,I,13,G,bottom,button,top,976,1
17,I,14,P,top,slider,down,936,1
17,I,15,N,bottom,button,top,856,1
17,I,16,P,bottom,slider,top,1009,1
17,I,17,N,top,button,down,1296,1
17,I,18,G,top,slider,down,872,1
17,I,19,P,top,button,down,815,1
17,I,20,M,bottom,slider,top,1023,1
17,I,21,G,bottom,button,top,839,1
17,I,22,M,top,slider,down,720,1
17,I,23,N,top,button,down,919,1
17,I,24,M,top,slider,down,1039,1
17,I,25,N,bottom,button,top,832,1
17,I,26,P,top,slider,down,849,1
17,I,27,M,bottom,button,top,1104,1
17,I,28,G,top,slider,down,1128,1
17,I,29,N,bottom,button,top,1000,1
17,I,30,N,top,slider,down,1064,1
17,I,31,M,bottom,button,top,911,1
17,I,32,G,bottom,slider,top,994,1
17,I,33,P,bottom,button,top,1306,1
17,I,34,P,top,slider,down,1304,1
17,I,35,M,top,button,down,1120,1
17,I,36,N,top,slider,down,864,1
17,I,37,P,bottom,button,top,823,1
17,I,38,G,top,slider,down,656,1
17,I,39,M,bottom,button,top,1145,1
17,I,40,P,top,slider,down,783,1
17,I,41,G,bottom,button,top,865,1
17,I,42,P,bottom,slider,top,960,1
17,I,43,N,top,button,down,697,1
17,I,44,N,bottom,slider,top,976,1
17,I,45,N,bottom,button,top,1200,1
17,I,46,M,top,slider,down,1184,1
17,I,47,N,top,button,down,840,1
17,I,48,P,top,slider,down,765,1
17,I,49,G,top,button,down,999,1
17,I,50,N,top,slider,down,847,1
17,I,51,G,top,button,down,912,1
17,I,52,N,top,slider,down,929,1
17,I,53,M,bottom,button,top,857,1
17,I,54,M,bottom,slider,top,729,1
17,I,55,M,bottom,button,top,871,1
17,I,56,G,top,slider,down,954,1
17,I,57,N,top,button,down,1272,1
17,I,58,N,top,slider,down,839,1
17,I,59,G,bottom,button,top,871,1
17,I,60,G,top,slider,down,1218,1
17,I,61,P,bottom,button,top,1080,1
17,I,62,P,top,slider,down,943,1
17,I,63,N,bottom,button,top,840,1
17,I,64,M,top,slider,down,975,1
17,I,65,G,top,button,down,839,1
17,I,66,P,top,slider,down,841,1
17,I,67,P,top,button,down,1032,1
17,I,68,G,top,slider,down,1080,1
17,I,69,G,top,button,down,856,1
17,I,70,P,top,slider,down,887,1
17,I,71,M,top,button,down,897,1
17,I,72,P,top,slider,down,1017,1
17,I,73,N,bottom,button,top,1152,1
17,I,74,P,top,slider,down,768,1
17,I,75,G,top,button,down,632,1
17,I,76,M,bottom,slider,top,712,1
17,I,77,P,top,button,down,960,1
17,I,78,G,top,slider,down,727,1
17,I,79,M,top,button,down,944,1
17,I,80,P,top,slider,down,919,1
17,D,1,M,top,button,down,762,1
17,D,2,N,bottom,slider,top,847,1
17,D,3,M,bottom,button,top,701,1
17,D,4,M,top,slider,down,871,1
17,D,5,P,bottom,button,top,659,1
17,D,6,G,top,slider,down,1722,1
17,D,7,N,bottom,button,top,787,1
17,D,8,M,bottom,slider,top,1545,1
17,D,9,G,top,button,down,718,1
17,D,10,N,top,slider,down,2218,1
17,D,11,G,top,button,top,787,0
17,D,12,M,top,slider,down,1429,1
17,D,13,G,top,button,down,701,1
17,D,14,P,top,slider,down,600,1
17,D,15,N,bottom,button,top,614,1
17,D,16,P,bottom,slider,top,1401,1
17,D,17,N,top,button,down,659,1
17,D,18,G,bottom,slider,top,600,1
17,D,19,P,bottom,button,top,787,1
17,D,20,M,bottom,slider,top,644,1
17,D,21,G,top,button,down,749,1
17,D,22,M,top,slider,down,885,1
17,D,23,N,bottom,button,top,699,1
17,D,24,M,top,slider,down,598,1
17,D,25,N,top,button,down,969,1
17,D,26,P,top,slider,down,1752,1
17,D,27,M,top,button,down,548,1
17,D,28,G,top,slider,down,484,1
17,D,29,N,top,button,down,657,1
17,D,30,N,bottom,slider,top,2895,1
17,D,31,M,top,button,down,635,1
17,D,32,G,bottom,slider,top,1375,1
17,D,33,P,top,button,down,638,1
17,D,34,P,bottom,slider,top,695,1
17,D,35,M,bottom,button,top,683,1
17,D,36,N,top,slider,down,743,1
17,D,37,P,bottom,button,top,758,1
17,D,38,G,top,slider,down,1972,1
17,D,39,M,bottom,button,top,730,1
17,D,40,P,bottom,slider,top,666,1
17,D,41,G,bottom,button,top,830,1
17,D,42,P,top,slider,down,602,1
17,D,43,N,bottom,button,top,657,1
17,D,44,N,bottom,slider,top,635,1
17,D,45,N,bottom,button,top,678,1
17,D,46,M,bottom,slider,top,614,1
17,D,47,N,bottom,button,top,602,1
17,D,48,P,bottom,slider,top,1763,1
17,D,49,G,bottom,button,top,983,1
17,D,50,N,bottom,slider,top,600,1
17,D,51,G,top,button,down,687,1
17,D,52,N,bottom,slider,top,658,1
17,D,53,M,top,button,down,716,1
17,D,54,M,bottom,slider,top,1701,1
17,D,55,M,top,button,down,710,1
17,D,56,G,bottom,slider,top,590,1
17,D,57,N,bottom,button,top,656,1
17,D,58,N,top,slider,down,668,1
17,D,59,G,bottom,button,top,736,1
17,D,60,G,top,slider,down,743,1
17,D,61,P,top,button,down,711,1
17,D,62,P,bottom,slider,top,664,1
17,D,63,N,bottom,button,top,746,1
17,D,64,M,top,slider,down,1730,1
17,D,65,G,bottom,button,top,676,1
17,D,66,P,top,slider,down,850,1
17,D,67,P,top,button,down,802,1
17,D,68,G,top,slider,down,570,1
17,D,69,G,top,button,down,676,1
17,D,70,P,bottom,slider,top,2961,1
17,D,71,M,top,button,down,657,1
17,D,72,P,bottom,slider,top,1607,1
17,D,73,N,top,button,down,597,1
17,D,74,P,top,slider,down,771,1
17,D,75,G,top,button,down,744,1
17,D,76,M,top,slider,down,1818,1
17,D,77,P,bottom,button,top,771,1
17,D,78,G,top,slider,down,615,1
17,D,79,M,top,button,down,710,1
17,D,80,P,bottom,slider,top,1586,1
18,I,1,P,top,button,down,1430,1
18,I,2,M,bottom,slider,down,1119,0
18,I,3,N,top,button,down,1711,1
18,I,4,N,top,slider,down,1287,1
18,I,5,N,top,button,down,1510,1
18,I,6,P,bottom,slider,down,1159,0
18,I,7,M,bottom,button,down,1128,0
18,I,8,P,bottom,slider,down,1128,0
18,I,9,M,top,button,down,1056,1
18,I,10,M,bottom,slider,down,1048,0
18,I,11,P,top,button,down,1056,1
18,I,12,P,top,slider,down,1040,1
18,I,13,P,top,button,down,1769,1
18,I,14,N,bottom,slider,down,944,0
18,I,15,P,bottom,button,down,1110,0
18,I,16,G,top,slider,down,858,1
18,I,17,M,bottom,button,down,2038,0
18,I,18,N,bottom,slider,down,931,0
18,I,19,G,top,button,down,953,1
18,I,20,P,top,slider,down,1415,1
18,I,21,M,top,button,down,1040,1
18,I,22,M,bottom,slider,down,1008,0
18,I,23,N,bottom,button,down,1008,0
18,I,24,N,top,slider,down,1006,1
18,I,25,G,top,button,down,1256,1
18,I,26,P,top,slider,down,1264,1
18,I,27,G,bottom,button,down,975,0
18,I,28,N,bottom,slider,down,856,0
18,I,29,G,bottom,button,down,1008,0
18,I,30,M,top,slider,down,1087,1
18,I,31,M,bottom,button,down,1144,0
18,I,32,N,bottom,slider,down,864,0
18,I,33,G,bottom,button,down,857,0
18,I,34,N,bottom,slider,down,904,0
18,I,35,G,top,button,down,1048,1
18,I,36,G,top,slider,down,865,1
18,I,37,N,top,button,down,976,1
18,I,38,N,bottom,slider,down,768,0
18,I,39,G,bottom,button,down,1095,0
18,I,40,G,bottom,slider,down,983,0
18,I,41,N,bottom,button,down,991,0
18,I,42,P,bottom,slider,down,831,0
18,I,43,N,bottom,button,down,1343,0
18,I,44,G,bottom,slider,down,911,0
18,I,45,M,bottom,button,down,961,0
18,I,46,G,top,slider,down,961,1
18,I,47,P,top,button,down,808,1
18,I,48,N,bottom,slider,down,855,0
18,I,49,P,bottom,button,down,945,0
18,I,50,P,top,slider,down,1120,1
18,I,51,M,bottom,button,down,903,0
18,I,52,M,top,slider,down,944,1
18,I,53,M,bottom,button,down,909,0
18,I,54,M,bottom,slider,down,793,0
18,I,55,P,bottom,button,down,952,0
18,I,56,G,top,slider,down,1048,1
18,I,57,G,bottom,button,down,1417,0
18,I,58,N,top,slider,down,870,1
18,I,59,G,bottom,button,down,977,0
18,I,60,P,bottom,slider,down,1127,0
18,I,61,G,bottom,button,down,1050,0
18,I,62,M,bottom,slider,down,1080,0
18,I,63,M,bottom,button,down,840,0
18,I,64,P,bottom,slider,down,1160,0
18,I,65,M,top,button,down,983,1
18,I,66,N,bottom,slider,down,968,0
18,I,67,P,bottom,button,down,1242,0
18,I,68,G,bottom,slider,down,911,0
18,I,69,P,top,button,down,2993,1
18,I,70,M,bottom,slider,down,4392,0
18,I,71,G,top,button,down,2142,1
18,I,72,N,top,slider,down,775,1
18,I,73,N,bottom,button,down,2696,0
18,I,74,P,top,slider,down,801,1
18,I,75,M,top,button,down,1857,1
18,I,76,M,bottom,slider,down,784,0
18,I,77,N,top,button,down,1784,1
18,I,78,G,top,slider,down,1056,1
18,I,79,P,bottom,button,down,2111,0
18,I,80,G,top,slider,down,1193,1
18,D,1,P,top,button,down,1724,1
18,D,2,M,top,slider,down,1000,1
18,D,3,N,top,button,down,958,1
18,D,4,N,bottom,slider,down,998,0
18,D,5,N,top,button,down,1712,1
18,D,6,P,bottom,slider,top,2527,1
18,D,7,M,bottom,button,top,2131,1
18,D,8,P,top,slider,down,1086,1
18,D,9,M,top,button,down,1534,1
18,D,10,M,top,slider,down,1170,1
18,D,11,P,top,button,down,1576,1
18,D,12,P,bottom,slider,top,2521,1
18,D,13,P,bottom,button,top,1429,1
18,D,14,N,top,slider,down,869,1
18,D,15,P,bottom,button,top,1961,1
18,D,16,G,top,slider,down,913,1
18,D,17,M,bottom,button,top,1243,1
18,D,18,N,bottom,slider,top,1096,1
18,D,19,G,bottom,button,top,902,1
18,D,20,P,top,slider,down,914,1
18,D,21,M,top,button,down,829,1
18,D,22,M,bottom,slider,top,753,1
18,D,23,N,bottom,button,top,1256,1
18,D,24,N,top,slider,down,838,1
18,D,25,G,bottom,button,top,952,1
18,D,26,P,top,slider,down,841,1
18,D,27,G,top,button,down,1768,1
18,D,28,N,top,slider,down,832,1
18,D,29,G,top,button,down,748,1
18,D,30,M,bottom,slider,top,743,1
18,D,31,M,top,button,down,768,1
18,D,32,N,top,slider,down,926,1
18,D,33,G,bottom,button,top,986,1
18,D,34,N,bottom,slider,top,2558,1
18,D,35,G,bottom,button,top,960,1
18,D,36,G,top,slider,down,785,1
18,D,37,N,bottom,button,top,933,1
18,D,38,N,bottom,slider,top,2174,1
18,D,39,G,top,button,down,1300,1
18,D,40,G,top,slider,down,1032,1
18,D,41,N,bottom,button,top,982,1
18,D,42,P,bottom,slider,top,1267,1
18,D,43,N,top,button,down,943,1
18,D,44,G,bottom,slider,top,939,1
18,D,45,M,top,button,down,1067,1
18,D,46,G,bottom,slider,top,1148,1
18,D,47,P,top,button,down,983,1
18,D,48,N,bottom,slider,top,924,1
18,D,49,P,bottom,button,top,1543,1
18,D,50,P,bottom,slider,top,1070,1
18,D,51,M,top,button,down,1154,1
18,D,52,M,bottom,slider,top,1351,1
18,D,53,M,bottom,button,top,859,1
18,D,54,M,bottom,slider,top,872,1
18,D,55,P,bottom,button,top,890,1
18,D,56,G,top,slider,down,944,1
18,D,57,G,top,button,down,812,1
18,D,58,N,bottom,slider,top,2231,1
18,D,59,G,bottom,button,top,751,1
18,D,60,P,bottom,slider,top,773,1
18,D,61,G,bottom,button,top,861,1
18,D,62,M,bottom,slider,top,743,1
18,D,63,M,bottom,button,top,796,1
18,D,64,P,top,slider,down,957,1
18,D,65,M,top,button,down,848,1
18,D,66,N,top,slider,down,761,1
18,D,67,P,top,button,down,805,1
18,D,68,G,bottom,slider,top,805,1
18,D,69,P,bottom,button,down,1581,0
18,D,70,M,top,slider,down,2367,1
18,D,71,G,top,button,down,1169,1
18,D,72,N,top,slider,down,2470,1
18,D,73,N,bottom,button,top,1758,1
18,D,74,P,top,slider,down,1072,1
18,D,75,M,top,button,down,1440,1
18,D,76,M,bottom,slider,失敗,null,0
18,D,77,N,bottom,button,top,2716,1
18,D,78,G,bottom,slider,top,1576,1
18,D,79,P,top,button,down,1958,1
18,D,80,G,top,slider,down,1263,1
19,I,1,N,top,button,down,6554,1
19,I,2,P,bottom,slider,down,7553,0
19,I,3,N,bottom,button,down,3583,0
19,I,4,G,bottom,slider,down,3041,0
19,I,5,N,top,button,down,2792,1
19,I,6,G,bottom,slider,down,1504,0
19,I,7,G,top,button,down,2151,1
19,I,8,P,bottom,slider,down,9471,0
19,I,9,G,bottom,button,down,4455,0
19,I,10,M,bottom,slider,top,10488,1
19,I,11,M,bottom,slider,top,10488,1
19,I,12,G,bottom,slider,down,2988,0
19,I,13,P,bottom,button,top,5825,1
19,I,14,N,top,slider,down,1408,1
19,I,15,P,top,button,down,6632,1
19,I,16,G,top,slider,down,1479,1
19,I,17,P,top,button,down,7399,1
19,I,18,M,bottom,slider,失敗,null,1
19,I,19,M,bottom,button,top,3535,1
19,I,20,G,top,slider,down,1176,1
19,I,21,P,top,button,未互動,null,null
19,I,22,N,top,slider,down,1880,1
19,I,23,M,bottom,button,top,1784,1
19,I,24,M,bottom,slider,top,3168,1
19,I,25,M,bottom,button,top,2449,1
19,I,26,P,top,slider,down,1663,1
19,I,27,P,bottom,button,top,3911,1
19,I,28,M,bottom,slider,top,1391,1
19,I,29,N,bottom,button,top,1521,1
19,I,30,N,bottom,slider,top,920,1
19,I,31,G,bottom,button,top,1335,1
19,I,32,N,top,slider,down,856,1
19,I,33,N,bottom,button,top,1711,1
19,I,34,G,bottom,slider,top,871,1
19,I,35,P,bottom,button,top,5617,1
19,I,36,P,top,slider,down,1449,1
19,I,37,M,top,button,down,1601,1
19,I,38,G,bottom,slider,top,1065,1
19,I,39,G,bottom,button,top,1054,1
19,I,40,P,bottom,slider,top,1545,1
19,I,41,M,top,button,down,1552,1
19,I,42,M,top,slider,down,1042,1
19,I,43,M,top,button,down,1654,1
19,I,44,P,top,slider,down,1240,1
19,I,45,G,top,button,down,1192,1
19,I,46,N,top,slider,down,1224,1
19,I,47,M,top,button,down,2097,1
19,I,48,P,bottom,slider,top,1192,1
19,I,49,N,top,button,down,1049,1
19,I,50,M,top,slider,down,1217,1
19,I,51,G,bottom,button,top,1327,1
19,I,52,P,bottom,slider,top,3200,1
19,I,53,G,top,button,down,984,1
19,I,54,M,bottom,slider,top,1375,1
19,I,55,P,bottom,button,top,3256,1
19,I,56,N,top,slider,down,928,1
19,I,57,G,top,button,down,1216,1
19,I,58,N,top,slider,down,1015,1
19,I,59,M,bottom,button,top,1385,1
19,I,60,P,top,slider,down,1616,1
19,I,61,M,bottom,button,top,2190,1
19,I,62,G,bottom,slider,top,1154,1
19,I,63,N,bottom,button,top,1585,1
19,I,64,N,top,slider,down,1057,1
19,I,65,G,bottom,button,top,1650,1
19,I,66,N,bottom,slider,top,887,1
19,I,67,P,bottom,button,top,5133,1
19,I,68,M,bottom,slider,top,1313,1
19,I,69,M,bottom,button,top,1417,1
19,I,70,N,bottom,slider,top,1183,1
19,I,71,G,bottom,button,top,1159,1
19,I,72,G,top,slider,down,991,1
19,I,73,P,bottom,button,top,1714,1
19,I,74,N,bottom,slider,top,1073,1
19,I,75,N,bottom,button,top,1449,1
19,I,76,N,top,slider,down,975,1
19,I,77,G,top,button,down,1128,1
19,I,78,M,top,slider,down,1015,1
19,I,79,P,top,button,down,2431,1
19,I,80,P,bottom,slider,top,1569,1
19,D,1,N,bottom,button,top,2322,1
19,D,2,P,top,slider,down,6126,1
19,D,3,N,top,button,down,1663,1
19,D,4,G,top,slider,down,2627,1
19,D,5,N,bottom,button,top,1619,1
19,D,6,G,bottom,slider,top,1009,1
19,D,7,G,bottom,button,top,1191,1
19,D,8,P,top,slider,down,4620,1
19,D,9,G,bottom,button,top,1824,1
19,D,10,M,top,slider,down,1693,1
19,D,11,M,top,button,down,1704,1
19,D,12,G,top,slider,down,3805,1
19,D,13,P,top,button,down,1832,1
19,D,14,N,top,slider,down,891,1
19,D,15,P,bottom,button,top,1026,1
19,D,16,G,bottom,slider,top,891,1
19,D,17,P,bottom,button,top,1285,1
19,D,18,M,top,slider,down,2889,1
19,D,19,M,bottom,button,top,1044,1
19,D,20,G,bottom,slider,top,1006,1
19,D,21,P,bottom,button,top,797,1
19,D,22,N,top,slider,down,6029,1
19,D,23,M,top,button,未互動,null,null
19,D,24,M,bottom,slider,top,788,1
19,D,25,M,top,button,down,1257,1
19,D,26,P,top,slider,down,1309,1
19,D,27,P,top,button,down,1020,1
19,D,28,M,bottom,slider,top,1107,1
19,D,29,N,bottom,button,top,1043,1
19,D,30,N,bottom,slider,top,2240,1
19,D,31,G,top,button,down,1088,1
19,D,32,N,bottom,slider,top,1202,1
19,D,33,N,bottom,button,top,1055,1
19,D,34,G,bottom,slider,top,1063,1
19,D,35,P,top,button,down,1969,1
19,D,36,P,top,slider,down,3417,1
19,D,37,M,top,button,down,2482,1
19,D,38,G,top,slider,down,3009,1
19,D,39,G,bottom,button,top,807,1
19,D,40,P,bottom,slider,top,1094,1
19,D,41,M,bottom,button,top,944,1
19,D,42,M,bottom,slider,top,5269,1
19,D,43,M,top,button,down,944,1
19,D,44,P,bottom,slider,top,3146,1
19,D,45,G,bottom,button,top,968,1
19,D,46,N,bottom,slider,未互動,null,null
19,D,47,M,bottom,button,top,828,1
19,D,48,P,bottom,slider,top,3662,1
19,D,49,N,bottom,button,top,1915,1
19,D,50,M,top,slider,down,2142,1
19,D,51,G,top,button,down,1068,1
19,D,52,P,bottom,slider,top,1362,1
19,D,53,G,bottom,button,top,914,1
19,D,54,M,top,slider,down,1272,1
19,D,55,P,top,button,down,2297,1
19,D,56,N,top,slider,down,1249,1
19,D,57,G,top,button,down,1002,1
19,D,58,N,bottom,slider,top,1200,1
19,D,59,M,bottom,button,top,1042,1
19,D,60,P,bottom,slider,top,1000,1
19,D,61,M,bottom,button,top,984,1
19,D,62,G,top,slider,down,1215,1
19,D,63,N,bottom,button,top,1120,1
19,D,64,N,top,slider,down,1120,1
19,D,65,G,top,button,down,968,1
19,D,66,N,top,slider,down,1280,1
19,D,67,P,bottom,button,top,2167,1
19,D,68,M,bottom,slider,top,4240,1
19,D,69,M,bottom,button,top,1106,1
19,D,70,N,bottom,slider,top,2038,1
19,D,71,G,top,button,down,1061,1
19,D,72,G,bottom,slider,top,5048,1
19,D,73,P,bottom,button,top,1095,1
19,D,74,N,bottom,slider,top,2351,1
19,D,75,N,bottom,button,top,1063,1
19,D,76,N,bottom,slider,top,1313,1
19,D,77,G,top,button,down,1113,1
19,D,78,M,top,slider,down,1345,1
19,D,79,P,bottom,button,top,3526,1
19,D,80,P,top,slider,down,7164,1
2,D,1,P,top,button,down,2601,1
2,D,2,M,top,slider,down,1880,1
2,D,3,P,top,button,down,1370,1
2,D,4,P,bottom,slider,top,1324,1
2,D,5,P,bottom,button,top,2374,1
2,D,6,M,top,slider,down,1112,1
2,D,7,G,bottom,button,top,1013,1
2,D,8,G,top,slider,down,1318,1
2,D,9,G,top,button,down,4620,1
2,D,10,M,bottom,slider,top,1442,1
2,D,11,M,bottom,button,top,1080,1
2,D,12,M,top,slider,down,1095,1
2,D,13,P,top,button,down,963,1
2,D,14,N,bottom,slider,top,1223,1
2,D,15,P,bottom,button,top,1050,1
2,D,16,G,bottom,slider,top,1074,1
2,D,17,M,bottom,button,top,1297,1
2,D,18,G,top,slider,down,1126,1
2,D,19,G,bottom,button,top,955,1
2,D,20,N,bottom,slider,top,2192,1
2,D,21,N,top,button,down,965,1
2,D,22,P,top,slider,down,818,1
2,D,23,N,bottom,button,top,945,1
2,D,24,N,bottom,slider,top,1013,1
2,D,25,M,top,button,down,876,1
2,D,26,G,bottom,slider,top,953,1
2,D,27,G,bottom,button,top,869,1
2,D,28,N,bottom,slider,top,951,1
2,D,29,P,top,button,down,854,1
2,D,30,M,top,slider,down,999,1
2,D,31,N,top,button,down,939,1
2,D,32,N,bottom,slider,top,1011,1
2,D,33,M,top,button,down,831,1
2,D,34,G,top,slider,down,1064,1
2,D,35,N,bottom,button,top,954,1
2,D,36,G,top,slider,down,1268,1
2,D,37,M,bottom,button,top,1699,1
2,D,38,N,bottom,slider,top,1036,1
2,D,39,M,top,button,down,743,1
2,D,40,G,top,slider,down,856,1
2,D,41,M,top,button,down,813,1
2,D,42,P,top,slider,down,758,1
2,D,43,N,bottom,button,top,910,1
2,D,44,P,bottom,slider,top,1050,1
2,D,45,G,top,button,down,808,1
2,D,46,N,top,slider,down,825,1
2,D,47,P,bottom,button,top,868,1
2,D,48,M,top,slider,down,847,1
2,D,49,G,top,button,down,832,1
2,D,50,G,bottom,slider,top,1001,1
2,D,51,G,bottom,button,top,871,1
2,D,52,M,top,slider,down,1115,1
2,D,53,N,top,button,down,856,1
2,D,54,P,top,slider,down,814,1
2,D,55,P,top,button,down,739,1
2,D,56,P,top,slider,down,918,1
2,D,57,P,top,button,down,728,1
2,D,58,G,top,slider,down,997,1
2,D,59,M,bottom,button,top,879,1
2,D,60,M,bottom,slider,top,922,1
2,D,61,M,top,button,down,826,1
2,D,62,P,bottom,slider,top,937,1
2,D,63,M,top,button,down,788,1
2,D,64,G,top,slider,down,988,1
2,D,65,M,bottom,button,top,926,1
2,D,66,N,bottom,slider,top,932,1
2,D,67,P,bottom,button,top,939,1
2,D,68,N,top,slider,down,895,1
2,D,69,N,bottom,button,top,866,1
2,D,70,N,top,slider,down,1043,1
2,D,71,G,top,button,down,816,1
2,D,72,P,bottom,slider,top,971,1
2,D,73,N,top,button,down,888,1
2,D,74,G,bottom,slider,top,978,1
2,D,75,P,top,button,down,759,1
2,D,76,N,top,slider,down,913,1
2,D,77,N,bottom,button,top,1028,1
2,D,78,P,top,slider,down,899,1
2,D,79,G,bottom,button,top,718,1
2,D,80,M,bottom,slider,top,847,1
2,I,1,P,bottom,button,top,1349,1
2,I,2,M,top,slider,down,982,1
2,I,3,P,top,button,down,1062,1
2,I,4,P,bottom,slider,top,871,1
2,I,5,P,bottom,button,top,1087,1
2,I,6,M,top,slider,down,862,1
2,I,7,G,bottom,button,top,1023,1
2,I,8,G,bottom,slider,top,1347,1
2,I,9,G,bottom,button,top,934,1
2,I,10,M,top,slider,down,1110,1
2,I,11,M,top,button,down,968,1
2,I,12,M,top,slider,down,960,1
2,I,13,P,top,button,down,1414,1
2,I,14,N,bottom,slider,top,992,1
2,I,15,P,top,button,down,942,1
2,I,16,G,top,slider,down,1016,1
2,I,17,M,top,button,down,1088,1
2,I,18,G,bottom,slider,top,1013,1
2,I,19,G,top,button,down,984,1
2,I,20,N,bottom,slider,top,1464,1
2,I,21,N,bottom,button,top,1023,1
2,I,22,P,top,slider,down,1119,1
2,I,23,N,bottom,button,top,913,1
2,I,24,N,bottom,slider,top,919,1
2,I,25,M,bottom,button,top,1001,1
2,I,26,G,top,slider,down,1000,1
2,I,27,G,bottom,button,top,1125,1
2,I,28,N,bottom,slider,top,943,1
2,I,29,P,bottom,button,top,1199,1
2,I,30,M,bottom,slider,top,910,1
2,I,31,N,bottom,button,top,960,1
2,I,32,N,top,slider,down,870,1
2,I,33,M,top,button,down,983,1
2,I,34,G,bottom,slider,top,760,1
2,I,35,N,bottom,button,top,1222,1
2,I,36,G,top,slider,down,909,1
2,I,37,M,bottom,button,top,942,1
2,I,38,N,bottom,slider,top,823,1
2,I,39,M,bottom,button,top,815,1
2,I,40,G,top,slider,down,1032,1
2,I,41,M,bottom,button,top,815,1
2,I,42,P,bottom,slider,top,1061,1
2,I,43,N,top,button,down,1151,1
2,I,44,P,top,slider,down,1039,1
2,I,45,G,bottom,button,top,816,1
2,I,46,N,bottom,slider,top,847,1
2,I,47,P,top,button,down,1176,1
2,I,48,M,top,slider,down,936,1
2,I,49,G,bottom,button,top,1111,1
2,I,50,G,top,slider,down,881,1
2,I,51,G,bottom,button,top,823,1
2,I,52,M,bottom,slider,top,847,1
2,I,53,N,bottom,button,top,862,1
2,I,54,P,top,slider,down,1104,1
2,I,55,P,top,button,down,1558,1
2,I,56,P,bottom,slider,top,994,1
2,I,57,P,bottom,button,top,1235,1
2,I,58,G,bottom,slider,top,791,1
2,I,59,M,bottom,button,top,831,1
2,I,60,M,bottom,slider,top,742,1
2,I,61,M,bottom,button,top,848,1
2,I,62,P,top,slider,down,912,1
2,I,63,M,top,button,down,1871,1
2,I,64,G,bottom,slider,top,855,1
2,I,65,M,bottom,button,top,1438,1
2,I,66,N,top,slider,down,840,1
2,I,67,P,top,button,down,921,1
2,I,68,N,bottom,slider,top,817,1
2,I,69,N,top,button,down,910,1
2,I,70,N,bottom,slider,top,911,1
2,I,71,G,bottom,button,top,720,1
2,I,72,P,top,slider,down,853,1
2,I,73,N,bottom,button,top,702,1
2,I,74,G,top,slider,down,872,1
2,I,75,P,bottom,button,top,960,1
2,I,76,N,top,slider,down,1000,1
2,I,77,N,bottom,button,top,800,1
2,I,78,P,top,slider,down,880,1
2,I,79,G,top,button,down,998,1
2,I,80,M,bottom,slider,top,830,1
20,D,1,P,top,button,down,5507,1
20,D,2,M,bottom,slider,top,1357,1
20,D,3,P,bottom,button,top,7176,1
20,D,4,N,top,slider,down,1410,1
20,D,5,G,bottom,button,top,1456,1
20,D,6,N,bottom,slider,top,1551,1
20,D,7,N,bottom,button,top,1283,1
20,D,8,G,bottom,slider,top,1533,1
20,D,9,G,top,button,down,1530,1
20,D,10,M,top,slider,down,1523,1
20,D,11,G,top,button,down,1307,1
20,D,12,N,top,slider,down,1269,1
20,D,13,N,top,button,down,1513,1
20,D,14,G,top,slider,down,1155,1
20,D,15,M,top,button,down,1227,1
20,D,16,P,bottom,slider,top,2411,1
20,D,17,M,bottom,button,top,2261,1
20,D,18,M,top,slider,down,1361,1
20,D,19,G,top,button,down,1084,1
20,D,20,M,top,slider,down,927,1
20,D,21,N,bottom,button,top,1170,1
20,D,22,M,bottom,slider,top,1612,1
20,D,23,N,bottom,button,top,1129,1
20,D,24,P,top,slider,down,1743,1
20,D,25,N,top,button,down,1139,1
20,D,26,M,top,slider,down,1234,1
20,D,27,G,top,button,down,1061,1
20,D,28,P,bottom,slider,top,1923,1
20,D,29,G,bottom,button,top,1029,1
20,D,30,P,top,slider,down,3096,1
20,D,31,P,top,button,down,3854,1
20,D,32,P,bottom,slider,top,2541,1
20,D,33,N,top,button,down,1426,1
20,D,34,G,bottom,slider,top,1448,1
20,D,35,G,bottom,button,top,1359,1
20,D,36,P,bottom,slider,top,2090,1
20,D,37,P,bottom,button,top,1575,1
20,D,38,M,top,slider,down,1525,1
20,D,39,M,top,button,down,2526,1
20,D,40,N,top,slider,down,1444,1
20,D,41,N,top,button,down,1339,1
20,D,42,N,top,slider,down,1295,1
20,D,43,M,bottom,button,top,2081,1
20,D,44,P,top,slider,down,2389,1
20,D,45,P,bottom,button,top,5803,1
20,D,46,M,top,slider,down,1695,1
20,D,47,N,top,button,down,1285,1
20,D,48,P,bottom,slider,top,1472,1
20,D,49,G,top,button,down,1318,1
20,D,50,M,top,slider,down,1308,1
20,D,51,G,bottom,button,top,1093,1
20,D,52,M,top,slider,down,1170,1
20,D,53,P,bottom,button,top,3423,1
20,D,54,P,bottom,slider,top,6993,1
20,D,55,G,top,button,down,1199,1
20,D,56,G,bottom,slider,top,1506,1
20,D,57,P,bottom,button,top,7678,1
20,D,58,G,top,slider,down,1053,1
20,D,59,N,bottom,button,top,1223,1
20,D,60,N,top,slider,down,1216,1
20,D,61,M,bottom,button,top,1299,1
20,D,62,P,bottom,slider,top,2576,1
20,D,63,M,bottom,button,top,1300,1
20,D,64,N,bottom,slider,top,1385,1
20,D,65,M,top,button,down,955,1
20,D,66,G,top,slider,down,1518,1
20,D,67,G,top,button,down,1018,1
20,D,68,P,top,slider,down,1822,1
20,D,69,N,top,button,down,1082,1
20,D,70,G,bottom,slider,top,1224,1
20,D,71,N,bottom,button,top,1344,1
20,D,72,M,bottom,slider,top,1290,1
20,D,73,G,top,button,down,1086,1
20,D,74,M,bottom,slider,top,1137,1
20,D,75,G,bottom,button,top,1309,1
20,D,76,P,bottom,slider,top,2627,1
20,D,77,P,bottom,button,top,1514,1
20,D,78,N,top,slider,down,1267,1
20,D,79,M,bottom,button,top,1830,1
20,D,80,N,top,slider,down,2131,1
20,I,1,P,top,button,down,2240,1
20,I,2,M,top,slider,down,1519,1
20,I,3,P,bottom,button,top,2967,1
20,I,4,N,bottom,slider,top,2287,1
20,I,5,G,top,button,down,1600,1
20,I,6,N,bottom,slider,top,2543,1
20,I,7,N,top,button,down,1038,1
20,I,8,G,bottom,slider,top,1255,1
20,I,9,G,top,button,down,1113,1
20,I,10,M,bottom,slider,top,1112,1
20,I,11,G,bottom,button,top,974,1
20,I,12,N,top,slider,down,1120,1
20,I,13,N,top,button,down,904,1
20,I,14,G,bottom,slider,top,855,1
20,I,15,M,top,button,down,984,1
20,I,16,P,top,slider,down,1689,1
20,I,17,M,bottom,button,top,1247,1
20,I,18,M,bottom,slider,top,1023,1
20,I,19,G,top,button,down,1105,1
20,I,20,M,bottom,slider,top,968,1
20,I,21,N,top,button,down,1097,1
20,I,22,M,top,slider,down,809,1
20,I,23,N,bottom,button,top,921,1
20,I,24,P,top,slider,down,1096,1
20,I,25,N,bottom,button,top,992,1
20,I,26,M,top,slider,down,1001,1
20,I,27,G,bottom,button,top,1272,1
20,I,28,P,top,slider,down,1167,1
20,I,29,G,top,button,down,1018,1
20,I,30,P,bottom,slider,top,1297,1
20,I,31,P,top,button,down,2151,1
20,I,32,P,top,slider,down,1528,1
20,I,33,N,top,button,down,1111,1
20,I,34,G,bottom,slider,top,985,1
20,I,35,G,bottom,button,top,1209,1
20,I,36,P,bottom,slider,top,943,1
20,I,37,P,bottom,button,top,953,1
20,I,38,M,bottom,slider,top,1176,1
20,I,39,M,bottom,button,top,1478,1
20,I,40,N,top,slider,down,920,1
20,I,41,N,bottom,button,top,1143,1
20,I,42,N,bottom,slider,top,1056,1
20,I,43,M,bottom,button,top,1080,1
20,I,44,P,top,slider,down,1681,1
20,I,45,P,top,button,down,2015,1
20,I,46,M,bottom,slider,top,1137,1
20,I,47,N,top,button,down,824,1
20,I,48,P,bottom,slider,top,1113,1
20,I,49,G,top,button,down,841,1
20,I,50,M,top,slider,down,921,1
20,I,51,G,bottom,button,top,880,1
20,I,52,M,top,slider,down,928,1
20,I,53,P,top,button,down,1136,1
20,I,54,P,bottom,slider,top,1017,1
20,I,55,G,top,button,down,1153,1
20,I,56,G,bottom,slider,top,857,1
20,I,57,P,bottom,button,top,871,1
20,I,58,G,bottom,slider,top,832,1
20,I,59,N,top,button,down,937,1
20,I,60,N,top,slider,down,911,1
20,I,61,M,bottom,button,top,1000,1
20,I,62,P,top,slider,down,1135,1
20,I,63,M,bottom,button,top,1176,1
20,I,64,N,bottom,slider,top,961,1
20,I,65,M,bottom,button,top,1096,1
20,I,66,G,bottom,slider,top,953,1
20,I,67,G,top,button,down,1221,1
20,I,68,P,top,slider,down,1055,1
20,I,69,N,bottom,button,top,1031,1
20,I,70,G,top,slider,down,1087,1
20,I,71,N,top,button,down,999,1
20,I,72,M,bottom,slider,top,807,1
20,I,73,G,bottom,button,top,1183,1
20,I,74,M,bottom,slider,top,952,1
20,I,75,G,bottom,button,top,888,1
20,I,76,P,bottom,slider,top,808,1
20,I,77,P,bottom,button,top,1024,1
20,I,78,N,top,slider,down,912,1
20,I,79,M,bottom,button,top,985,1
20,I,80,N,top,slider,down,1264,1
21,D,1,N,top,button,top,3109,0
21,D,2,N,bottom,slider,down,1487,0
21,D,3,N,top,button,top,1500,0
21,D,4,P,top,slider,top,1206,0
21,D,5,M,top,button,top,2119,0
21,D,6,N,top,slider,top,2052,0
21,D,7,P,bottom,button,down,1646,0
21,D,8,P,bottom,slider,down,2963,0
21,D,9,N,top,button,top,944,0
21,D,10,N,top,slider,top,2801,0
21,D,11,P,top,button,top,1244,0
21,D,12,G,top,slider,top,936,0
21,D,13,M,bottom,button,down,1197,0
21,D,14,N,top,slider,top,904,0
21,D,15,M,top,button,top,1279,0
21,D,16,M,top,slider,top,1988,0
21,D,17,G,bottom,button,down,1096,0
21,D,18,N,bottom,slider,down,900,0
21,D,19,P,top,button,top,871,0
21,D,20,P,top,slider,top,1920,0
21,D,21,N,bottom,button,down,926,0
21,D,22,P,bottom,slider,top,1076,1
21,D,23,P,top,button,down,850,1
21,D,24,G,bottom,slider,down,912,0
21,D,25,N,top,button,top,741,0
21,D,26,P,bottom,slider,down,679,0
21,D,27,N,top,button,top,688,0
21,D,28,P,bottom,slider,down,3238,0
21,D,29,G,bottom,button,top,1230,1
21,D,30,G,top,slider,top,794,0
21,D,31,N,bottom,button,down,2301,0
21,D,32,G,bottom,slider,down,894,0
21,D,33,N,top,button,top,772,0
21,D,34,G,bottom,slider,down,650,0
21,D,35,M,bottom,button,down,1832,0
21,D,36,M,bottom,slider,down,1615,0
21,D,37,M,top,button,top,868,0
21,D,38,G,top,slider,top,723,0
21,D,39,G,bottom,button,down,892,0
21,D,40,M,top,slider,top,777,0
21,D,41,P,bottom,button,down,889,0
21,D,42,M,bottom,slider,down,675,0
21,D,43,G,top,button,top,1208,0
21,D,44,M,top,slider,top,1345,0
21,D,45,G,bottom,button,down,1116,0
21,D,46,P,top,slider,top,1064,0
21,D,47,M,bottom,button,down,810,0
21,D,48,P,top,slider,top,1062,0
21,D,49,G,bottom,button,down,1629,0
21,D,50,P,top,slider,top,906,0
21,D,51,M,top,button,top,850,0
21,D,52,M,top,slider,top,2226,0
21,D,53,G,bottom,button,down,1067,0
21,D,54,P,top,slider,top,1531,0
21,D,55,M,top,button,top,1260,0
21,D,56,G,top,slider,top,574,0
21,D,57,P,top,button,top,919,0
21,D,58,M,bottom,slider,down,694,0
21,D,59,N,top,button,top,933,0
21,D,60,G,top,slider,top,1572,0
21,D,61,P,top,button,top,1292,0
21,D,62,N,top,slider,top,724,0
21,D,63,M,top,button,top,759,0
21,D,64,P,top,slider,top,1358,0
21,D,65,P,bottom,button,down,783,0
21,D,66,M,top,slider,top,620,0
21,D,67,M,bottom,button,down,615,0
21,D,68,N,top,slider,top,1594,0
21,D,69,N,top,button,top,708,0
21,D,70,M,top,slider,top,710,0
21,D,71,N,bottom,button,down,935,0
21,D,72,G,bottom,slider,down,559,0
21,D,73,N,top,button,top,1029,0
21,D,74,G,top,slider,top,655,0
21,D,75,M,bottom,button,down,1406,0
21,D,76,G,bottom,slider,down,661,0
21,D,77,N,top,button,top,1128,0
21,D,78,G,bottom,slider,down,711,0
21,D,79,P,top,button,top,732,0
21,D,80,G,top,slider,top,725,0
21,I,1,N,top,button,top,2244,0
21,I,2,N,bottom,slider,down,4381,0
21,I,3,N,bottom,button,down,735,0
21,I,4,P,bottom,slider,down,997,0
21,I,5,M,top,button,top,774,0
21,I,6,N,bottom,slider,down,1430,0
21,I,7,P,bottom,button,down,771,0
21,I,8,P,top,slider,top,727,0
21,I,9,N,bottom,button,down,570,0
21,I,10,N,top,slider,top,701,0
21,I,11,P,bottom,button,down,604,0
21,I,12,G,top,slider,top,708,0
21,I,13,M,bottom,button,down,597,0
21,I,14,N,top,slider,top,635,0
21,I,15,M,bottom,button,down,611,0
21,I,16,M,bottom,slider,down,527,0
21,I,17,G,top,button,top,1109,0
21,I,18,N,top,slider,top,657,0
21,I,19,P,top,button,top,601,0
21,I,20,P,bottom,slider,down,1404,0
21,I,21,N,bottom,button,down,678,0
21,I,22,P,bottom,slider,down,3142,0
21,I,23,P,bottom,button,down,773,0
21,I,24,G,bottom,slider,down,633,0
21,I,25,N,bottom,button,down,649,0
21,I,26,P,bottom,slider,top,508,1
21,I,27,N,top,button,top,723,0
21,I,28,P,top,slider,top,745,0
21,I,29,G,top,button,top,698,0
21,I,30,G,bottom,slider,down,1766,0
21,I,31,N,bottom,button,down,537,0
21,I,32,G,bottom,slider,down,730,0
21,I,33,N,bottom,button,down,582,0
21,I,34,G,top,slider,top,614,0
21,I,35,M,top,button,top,665,0
21,I,36,M,bottom,slider,down,614,0
21,I,37,M,bottom,button,top,969,1
21,I,38,G,bottom,slider,down,583,0
21,I,39,G,top,button,top,485,0
21,I,40,M,bottom,slider,down,569,0
21,I,41,P,top,button,top,654,0
21,I,42,M,top,slider,top,751,0
21,I,43,G,bottom,button,down,392,0
21,I,44,M,bottom,slider,top,304,1
21,I,45,G,top,button,top,1061,0
21,I,46,P,top,slider,top,398,0
21,I,47,M,top,button,top,539,0
21,I,48,P,bottom,slider,down,521,0
21,I,49,G,top,button,top,502,0
21,I,50,P,top,slider,top,444,0
21,I,51,M,bottom,button,down,450,0
21,I,52,M,bottom,slider,down,2485,0
21,I,53,G,bottom,button,down,688,0
21,I,54,P,bottom,slider,down,421,0
21,I,55,M,top,button,top,1025,0
21,I,56,G,bottom,slider,down,525,0
21,I,57,P,bottom,button,down,563,0
21,I,58,M,top,slider,top,570,0
21,I,59,N,top,button,top,641,0
21,I,60,G,bottom,slider,down,879,0
21,I,61,P,bottom,button,down,506,0
21,I,62,N,bottom,slider,down,443,0
21,I,63,M,bottom,button,down,546,0
21,I,64,P,top,slider,top,2367,0
21,I,65,P,bottom,button,down,492,0
21,I,66,M,bottom,slider,down,580,0
21,I,67,M,bottom,button,down,525,0
21,I,68,N,bottom,slider,down,625,0
21,I,69,N,top,button,top,801,0
21,I,70,M,top,slider,top,666,0
21,I,71,N,bottom,button,down,548,0
21,I,72,G,top,slider,top,677,0
21,I,73,N,top,button,top,696,0
21,I,74,G,bottom,slider,down,588,0
21,I,75,M,top,button,top,659,0
21,I,76,G,top,slider,top,964,0
21,I,77,N,top,button,top,615,0
21,I,78,G,bottom,slider,down,590,0
21,I,79,P,top,button,top,611,0
21,I,80,G,bottom,slider,down,540,0
22,D,1,G,top,button,down,1403,1
22,D,2,N,bottom,slider,top,1190,1
22,D,3,M,top,button,down,1155,1
22,D,4,G,bottom,slider,top,1100,1
22,D,5,G,top,button,down,1102,1
22,D,6,G,bottom,slider,top,1022,1
22,D,7,M,bottom,button,top,1480,1
22,D,8,N,top,slider,down,856,1
22,D,9,P,bottom,button,top,1770,1
22,D,10,G,bottom,slider,top,2771,1
22,D,11,G,bottom,button,top,796,1
22,D,12,N,top,slider,down,825,1
22,D,13,M,top,button,down,984,1
22,D,14,P,top,slider,down,979,1
22,D,15,N,top,button,down,785,1
22,D,16,M,top,slider,down,871,1
22,D,17,P,top,button,down,736,1
22,D,18,G,top,slider,down,2226,1
22,D,19,M,top,button,down,898,1
22,D,20,G,top,slider,down,741,1
22,D,21,G,bottom,button,top,819,1
22,D,22,N,top,slider,down,709,1
22,D,23,P,bottom,button,top,815,1
22,D,24,M,bottom,slider,top,2046,1
22,D,25,P,bottom,button,top,1409,1
22,D,26,G,top,slider,down,895,1
22,D,27,M,bottom,button,top,822,1
22,D,28,M,top,slider,down,728,1
22,D,29,G,bottom,button,top,722,1
22,D,30,P,bottom,slider,top,842,1
22,D,31,P,bottom,button,top,856,1
22,D,32,G,top,slider,down,669,1
22,D,33,M,top,button,down,761,1
22,D,34,G,bottom,slider,top,834,1
22,D,35,N,bottom,button,top,687,1
22,D,36,N,top,slider,down,914,1
22,D,37,P,top,button,down,827,1
22,D,38,N,top,slider,down,617,1
22,D,39,N,bottom,button,top,718,1
22,D,40,P,bottom,slider,top,601,1
22,D,41,M,bottom,button,top,699,1
22,D,42,P,bottom,slider,top,643,1
22,D,43,G,top,button,down,718,1
22,D,44,P,bottom,slider,top,667,1
22,D,45,M,top,button,down,786,1
22,D,46,G,bottom,slider,top,762,1
22,D,47,M,top,button,down,860,1
22,D,48,P,top,slider,down,655,1
22,D,49,P,top,button,down,742,1
22,D,50,M,bottom,slider,top,1775,1
22,D,51,G,bottom,button,top,938,1
22,D,52,N,bottom,slider,top,843,1
22,D,53,N,top,button,down,762,1
22,D,54,M,bottom,slider,top,901,1
22,D,55,M,top,button,down,1009,1
22,D,56,N,top,slider,down,1694,1
22,D,57,N,bottom,button,top,622,1
22,D,58,G,top,slider,down,601,1
22,D,59,N,top,button,down,633,1
22,D,60,P,top,slider,down,840,1
22,D,61,N,top,button,down,645,1
22,D,62,M,bottom,slider,top,727,1
22,D,63,P,top,button,down,656,1
22,D,64,N,bottom,slider,top,634,1
22,D,65,G,top,button,down,760,1
22,D,66,M,bottom,slider,top,1856,1
22,D,67,P,bottom,button,top,687,1
22,D,68,N,bottom,slider,top,812,1
22,D,69,P,top,button,down,658,1
22,D,70,M,bottom,slider,top,815,1
22,D,71,P,top,button,down,729,1
22,D,72,G,bottom,slider,top,668,1
22,D,73,M,bottom,button,top,848,1
22,D,74,N,bottom,slider,top,668,1
22,D,75,P,top,button,down,668,1
22,D,76,N,bottom,slider,top,758,1
22,D,77,N,top,button,down,678,1
22,D,78,P,bottom,slider,top,592,1
22,D,79,M,bottom,button,top,741,1
22,D,80,G,top,slider,down,671,1
22,I,1,G,top,button,down,1192,1
22,I,2,N,bottom,slider,top,969,1
22,I,3,M,top,button,down,1048,1
22,I,4,G,top,slider,down,1073,1
22,I,5,G,bottom,button,top,952,1
22,I,6,G,bottom,slider,top,721,1
22,I,7,M,bottom,button,top,1192,1
22,I,8,N,bottom,slider,top,809,1
22,I,9,P,bottom,button,top,960,1
22,I,10,G,bottom,slider,top,827,1
22,I,11,G,bottom,button,top,1168,1
22,I,12,N,bottom,slider,top,649,1
22,I,13,M,bottom,button,top,958,1
22,I,14,P,bottom,slider,top,1017,1
22,I,15,N,top,button,down,823,1
22,I,16,M,bottom,slider,top,841,1
22,I,17,P,bottom,button,top,904,1
22,I,18,G,top,slider,down,769,1
22,I,19,M,top,button,down,855,1
22,I,20,G,bottom,slider,top,823,1
22,I,21,G,top,button,down,787,1
22,I,22,N,bottom,slider,top,895,1
22,I,23,P,bottom,button,top,856,1
22,I,24,M,bottom,slider,top,897,1
22,I,25,P,top,button,down,1186,1
22,I,26,G,top,slider,down,1105,1
22,I,27,M,bottom,button,top,1351,1
22,I,28,M,bottom,slider,top,970,1
22,I,29,G,bottom,button,top,1001,1
22,I,30,P,bottom,slider,top,929,1
22,I,31,P,bottom,button,top,1016,1
22,I,32,G,top,slider,down,680,1
22,I,33,M,bottom,button,top,800,1
22,I,34,G,bottom,slider,top,632,1
22,I,35,N,top,button,down,874,1
22,I,36,N,bottom,slider,top,768,1
22,I,37,P,bottom,button,top,807,1
22,I,38,N,bottom,slider,top,648,1
22,I,39,N,top,button,down,888,1
22,I,40,P,top,slider,down,784,1
22,I,41,M,bottom,button,top,1463,1
22,I,42,P,bottom,slider,top,1024,1
22,I,43,G,bottom,button,top,1040,1
22,I,44,P,top,slider,down,913,1
22,I,45,M,top,button,down,959,1
22,I,46,G,top,slider,down,1344,1
22,I,47,M,top,button,down,999,1
22,I,48,P,bottom,slider,top,825,1
22,I,49,P,top,button,down,759,1
22,I,50,M,bottom,slider,top,801,1
22,I,51,G,top,button,down,793,1
22,I,52,N,top,slider,down,672,1
22,I,53,N,top,button,down,873,1
22,I,54,M,bottom,slider,top,1024,1
22,I,55,M,bottom,button,top,1248,1
22,I,56,N,bottom,slider,top,592,1
22,I,57,N,top,button,down,816,1
22,I,58,G,bottom,slider,top,625,1
22,I,59,N,bottom,button,top,1034,1
22,I,60,P,top,slider,down,858,1
22,I,61,N,bottom,button,top,802,1
22,I,62,M,bottom,slider,top,850,1
22,I,63,P,top,button,down,857,1
22,I,64,N,bottom,slider,top,648,1
22,I,65,G,bottom,button,top,898,1
22,I,66,M,bottom,slider,top,1407,1
22,I,67,P,bottom,button,top,922,1
22,I,68,N,top,slider,down,983,1
22,I,69,P,top,button,down,888,1
22,I,70,M,bottom,slider,top,969,1
22,I,71,P,bottom,button,top,697,1
22,I,72,G,top,slider,down,946,1
22,I,73,M,bottom,button,top,768,1
22,I,74,N,top,slider,down,784,1
22,I,75,P,bottom,button,top,761,1
22,I,76,N,bottom,slider,top,639,1
22,I,77,N,top,button,down,657,1
22,I,78,P,bottom,slider,top,824,1
22,I,79,M,bottom,button,top,969,1
22,I,80,G,top,slider,down,865,1
23,D,1,M,top,button,down,2470,1
23,D,2,P,top,slider,down,1774,1
23,D,3,N,bottom,button,top,1825,1
23,D,4,P,bottom,slider,down,1395,0
23,D,5,P,bottom,button,top,2197,1
23,D,6,P,top,slider,down,1268,1
23,D,7,M,bottom,button,top,932,1
23,D,8,N,bottom,slider,top,1101,1
23,D,9,M,bottom,button,top,1013,1
23,D,10,N,bottom,slider,top,751,1
23,D,11,N,bottom,button,top,1314,1
23,D,12,P,bottom,slider,top,887,1
23,D,13,P,bottom,button,top,845,1
23,D,14,N,bottom,slider,top,774,1
23,D,15,M,bottom,button,top,763,1
23,D,16,M,bottom,slider,top,783,1
23,D,17,P,top,button,down,792,1
23,D,18,G,bottom,slider,top,790,1
23,D,19,M,bottom,button,top,631,1
23,D,20,P,top,slider,top,642,0
23,D,21,P,bottom,button,top,1085,1
23,D,22,N,top,slider,down,3328,1
23,D,23,M,top,button,down,1192,1
23,D,24,P,bottom,slider,top,1586,1
23,D,25,P,top,button,down,826,1
23,D,26,M,top,slider,down,642,1
23,D,27,N,bottom,button,top,967,1
23,D,28,G,bottom,slider,top,771,1
23,D,29,M,top,button,down,771,1
23,D,30,P,top,slider,down,825,1
23,D,31,G,bottom,button,top,657,1
23,D,32,M,bottom,slider,top,786,1
23,D,33,N,top,button,down,641,1
23,D,34,M,bottom,slider,top,921,1
23,D,35,G,top,button,down,918,1
23,D,36,G,top,slider,down,632,1
23,D,37,N,top,button,down,813,1
23,D,38,N,top,slider,down,700,1
23,D,39,G,top,button,down,750,1
23,D,40,P,bottom,slider,top,1771,1
23,D,41,N,bottom,button,top,820,1
23,D,42,G,bottom,slider,top,798,1
23,D,43,M,bottom,button,top,857,1
23,D,44,N,top,slider,down,751,1
23,D,45,M,bottom,button,top,660,1
23,D,46,N,top,slider,down,1403,1
23,D,47,G,bottom,button,top,733,1
23,D,48,M,bottom,slider,top,931,1
23,D,49,G,bottom,button,top,590,1
23,D,50,G,top,slider,down,582,1
23,D,51,N,bottom,button,top,671,1
23,D,52,P,bottom,slider,top,764,1
23,D,53,M,bottom,button,top,626,1
23,D,54,M,top,slider,down,686,1
23,D,55,P,bottom,button,top,573,1
23,D,56,P,top,slider,down,604,1
23,D,57,G,bottom,button,top,549,1
23,D,58,P,top,slider,down,1664,1
23,D,59,G,bottom,button,top,603,1
23,D,60,M,top,slider,down,530,1
23,D,61,G,top,button,down,948,1
23,D,62,G,top,slider,down,557,1
23,D,63,M,top,button,top,504,0
23,D,64,P,top,slider,down,1635,1
23,D,65,N,top,button,down,638,1
23,D,66,N,bottom,slider,top,642,1
23,D,67,N,bottom,button,top,626,1
23,D,68,N,top,slider,down,615,1
23,D,69,G,bottom,button,top,656,1
23,D,70,P,bottom,slider,top,529,1
23,D,71,G,top,button,down,617,1
23,D,72,G,top,slider,down,568,1
23,D,73,G,bottom,button,top,524,1
23,D,74,G,bottom,slider,top,487,1
23,D,75,N,bottom,button,top,581,1
23,D,76,N,top,slider,down,532,1
23,D,77,M,bottom,button,top,631,1
23,D,78,P,bottom,slider,top,616,1
23,D,79,G,top,button,down,1112,1
23,D,80,M,top,slider,down,3484,1
23,I,1,M,bottom,button,top,2054,1
23,I,2,P,bottom,slider,top,1086,1
23,I,3,N,bottom,button,top,832,1
23,I,4,P,bottom,slider,top,1484,1
23,I,5,P,top,button,down,1191,1
23,I,6,P,top,slider,down,736,1
23,I,7,M,bottom,button,top,804,1
23,I,8,N,top,slider,down,557,1
23,I,9,M,top,button,down,794,1
23,I,10,N,top,slider,down,658,1
23,I,11,N,bottom,button,top,676,1
23,I,12,P,bottom,slider,top,711,1
23,I,13,P,top,button,down,544,1
23,I,14,N,bottom,slider,top,693,1
23,I,15,M,bottom,button,top,907,1
23,I,16,M,top,slider,down,677,1
23,I,17,P,top,button,down,870,1
23,I,18,G,bottom,slider,top,1677,1
23,I,19,M,top,button,down,535,1
23,I,20,P,bottom,slider,top,551,1
23,I,21,P,top,button,down,726,1
23,I,22,N,bottom,slider,top,655,1
23,I,23,M,bottom,button,top,691,1
23,I,24,P,top,slider,down,1226,1
23,I,25,P,bottom,button,top,1604,1
23,I,26,M,bottom,slider,top,803,1
23,I,27,N,top,button,down,800,1
23,I,28,G,bottom,slider,top,1912,1
23,I,29,M,bottom,button,top,918,1
23,I,30,P,bottom,slider,top,2508,1
23,I,31,G,bottom,button,top,741,1
23,I,32,M,top,slider,down,618,1
23,I,33,N,bottom,button,top,1094,1
23,I,34,M,top,slider,down,688,1
23,I,35,G,top,button,down,887,1
23,I,36,G,bottom,slider,top,768,1
23,I,37,N,top,button,down,564,1
23,I,38,N,bottom,slider,top,1245,1
23,I,39,G,bottom,button,top,750,1
23,I,40,P,top,slider,down,756,1
23,I,41,N,top,button,down,1737,1
23,I,42,G,top,slider,down,1299,1
23,I,43,M,top,button,down,823,1
23,I,44,N,top,slider,down,791,1
23,I,45,M,bottom,button,top,900,1
23,I,46,N,top,slider,down,722,1
23,I,47,G,top,button,down,1193,1
23,I,48,M,bottom,slider,top,1395,1
23,I,49,G,bottom,button,top,1178,1
23,I,50,G,bottom,slider,top,694,1
23,I,51,N,top,button,down,779,1
23,I,52,P,top,slider,down,715,1
23,I,53,M,top,button,down,848,1
23,I,54,M,top,slider,down,725,1
23,I,55,P,top,button,down,721,1
23,I,56,P,bottom,slider,top,849,1
23,I,57,G,top,button,down,687,1
23,I,58,P,top,slider,down,719,1
23,I,59,G,bottom,button,top,888,1
23,I,60,M,bottom,slider,top,683,1
23,I,61,G,bottom,button,top,808,1
23,I,62,G,bottom,slider,top,668,1
23,I,63,M,top,button,down,914,1
23,I,64,P,bottom,slider,top,655,1
23,I,65,N,top,button,down,570,1
23,I,66,N,top,slider,down,643,1
23,I,67,N,bottom,button,top,509,1
23,I,68,N,top,slider,down,1843,1
23,I,69,G,top,button,down,1097,1
23,I,70,P,top,slider,down,720,1
23,I,71,G,bottom,button,top,737,1
23,I,72,G,bottom,slider,top,1156,1
23,I,73,G,top,button,down,910,1
23,I,74,G,bottom,slider,top,630,1
23,I,75,N,top,button,down,730,1
23,I,76,N,bottom,slider,top,616,1
23,I,77,M,top,button,down,699,1
23,I,78,P,bottom,slider,top,2099,1
23,I,79,G,top,button,down,905,1
23,I,80,M,top,slider,down,779,1
24,D,1,P,bottom,button,top,1583,1
24,D,2,M,bottom,slider,top,1277,1
24,D,3,P,bottom,button,top,1670,1
24,D,4,N,bottom,slider,top,1123,1
24,D,5,M,bottom,button,top,1041,1
24,D,6,M,top,slider,down,1077,1
24,D,7,M,bottom,button,top,975,1
24,D,8,P,bottom,slider,top,960,1
24,D,9,N,top,button,down,870,1
24,D,10,M,top,slider,down,965,1
24,D,11,P,bottom,button,top,1922,1
24,D,12,G,top,slider,down,961,1
24,D,13,G,top,button,down,896,1
24,D,14,P,bottom,slider,top,729,1
24,D,15,G,bottom,button,top,1169,1
24,D,16,M,bottom,slider,top,993,1
24,D,17,M,bottom,button,top,900,1
24,D,18,M,top,slider,down,812,1
24,D,19,P,top,button,down,742,1
24,D,20,G,bottom,slider,top,785,1
24,D,21,G,bottom,button,top,845,1
24,D,22,G,bottom,slider,top,769,1
24,D,23,P,top,button,down,786,1
24,D,24,N,bottom,slider,top,719,1
24,D,25,M,bottom,button,top,814,1
24,D,26,G,bottom,slider,top,3462,1
24,D,27,N,top,button,down,915,1
24,D,28,N,top,slider,down,963,1
24,D,29,P,top,button,down,848,1
24,D,30,N,top,slider,down,785,1
24,D,31,N,top,button,down,837,1
24,D,32,N,top,slider,down,922,1
24,D,33,G,top,button,down,727,1
24,D,34,N,bottom,slider,top,834,1
24,D,35,P,top,button,down,974,1
24,D,36,N,top,slider,down,809,1
24,D,37,M,top,button,down,795,1
24,D,38,P,bottom,slider,top,1041,1
24,D,39,P,bottom,button,top,1068,1
24,D,40,P,bottom,slider,top,884,1
24,D,41,G,bottom,button,top,719,1
24,D,42,M,bottom,slider,top,811,1
24,D,43,M,top,button,down,784,1
24,D,44,G,top,slider,down,870,1
24,D,45,G,top,button,down,745,1
24,D,46,P,bottom,slider,top,772,1
24,D,47,G,top,button,down,718,1
24,D,48,N,bottom,slider,top,786,1
24,D,49,P,top,button,down,701,1
24,D,50,M,top,slider,down,928,1
24,D,51,P,top,button,down,914,1
24,D,52,P,top,slider,down,707,1
24,D,53,G,top,button,down,649,1
24,D,54,N,bottom,slider,top,794,1
